"participant","bubbled","back_masked","SOA","block_num","trial_image","category","correct","rt","aphantasia","age","vviq_standard","source","source_folder","item","group","mask","block","soa_log","soa_s"
"p_359aaf68a73a6a7f","no","yes",0.075,"1","Stimuli/Stimuli_Grayscaled/Clothing/Sweater_grayscaled_1.png","Clothing",1,1.6109,"yes",55,32,"facebook","aphantasia_facebook","Stimuli/Stimuli_Grayscaled/Clothing/Sweater_grayscaled_1.png","aphant","masked","1",-2.59026716544583,0.170658663338346
"p_359aaf68a73a6a7f","no","yes",0.075,"1","Stimuli/Stimuli_Grayscaled/Toys/StuffedElephant_grayscaled_1.png","Toys",1,2.3461,"yes",55,32,"facebook","aphantasia_facebook","Stimuli/Stimuli_Grayscaled/Toys/StuffedElephant_grayscaled_1.png","aphant","masked","1",-2.59026716544583,0.170658663338346
"p_359aaf68a73a6a7f","no","no",0.075,"1","Stimuli/Stimuli_Grayscaled/Toys/Slinky_grayscaled_1.png","Toys",1,0.1731,"yes",55,32,"facebook","aphantasia_facebook","Stimuli/Stimuli_Grayscaled/Toys/Slinky_grayscaled_1.png","aphant","unmasked","1",-2.59026716544583,0.170658663338346
"p_359aaf68a73a6a7f","no","yes",0.025,"1","Stimuli/Stimuli_Grayscaled/Toys/Ball_grayscaled_1.png","Toys",1,0.1672,"yes",55,32,"facebook","aphantasia_facebook","Stimuli/Stimuli_Grayscaled/Toys/Ball_grayscaled_1.png","aphant","masked","1",-3.68887945411394,-1.62091677697361
"p_359aaf68a73a6a7f","no","yes",0.025,"1","Stimuli/Stimuli_Grayscaled/Clothing/Robe_grayscaled_1.png","Clothing",1,0.3838,"yes",55,32,"facebook","aphantasia_facebook","Stimuli/Stimuli_Grayscaled/Clothing/Robe_grayscaled_1.png","aphant","masked","1",-3.68887945411394,-1.62091677697361
"p_359aaf68a73a6a7f","no","no",0.15,"1","Stimuli/Stimuli_Grayscaled/Clothing/Heels_grayscaled_1.png","Clothing",1,0.0563,"yes",55,32,"facebook","aphantasia_facebook","Stimuli/Stimuli_Grayscaled/Clothing/Heels_grayscaled_1.png","aphant","unmasked","1",-1.89711998488588,1.30101691439904
"p_359aaf68a73a6a7f","no","no",0.15,"1","Stimuli/Stimuli_Grayscaled/Food/HotDog_grayscaled_1.png","Food",1,0.0618,"yes",55,32,"facebook","aphantasia_facebook","Stimuli/Stimuli_Grayscaled/Food/HotDog_grayscaled_1.png","aphant","unmasked","1",-1.89711998488588,1.30101691439904
"p_359aaf68a73a6a7f","no","no",0.1,"1","Stimuli/Stimuli_Grayscaled/Clothing/Blazer_grayscaled_1.png","Clothing",1,0.5936,"yes",55,32,"facebook","aphantasia_facebook","Stimuli/Stimuli_Grayscaled/Clothing/Blazer_grayscaled_1.png","aphant","unmasked","1",-2.30258509299405,0.639799725147786
"p_359aaf68a73a6a7f","no","no",0.025,"1","Stimuli/Stimuli_Grayscaled/Tools/GardenHose_grayscaled_1.png","Tools",1,1.8382,"yes",55,32,"facebook","aphantasia_facebook","Stimuli/Stimuli_Grayscaled/Tools/GardenHose_grayscaled_1.png","aphant","unmasked","1",-3.68887945411394,-1.62091677697361
"p_359aaf68a73a6a7f","no","yes",0.075,"1","Stimuli/Stimuli_Grayscaled/Food/BakedPotato_grayscaled_1.png","Food",1,1.1197,"yes",55,32,"facebook","aphantasia_facebook","Stimuli/Stimuli_Grayscaled/Food/BakedPotato_grayscaled_1.png","aphant","masked","1",-2.59026716544583,0.170658663338346
"p_359aaf68a73a6a7f","no","yes",0.05,"1","Stimuli/Stimuli_Grayscaled/Food/Cabbage_grayscaled_1.png","Food",1,0.9721,"yes",55,32,"facebook","aphantasia_facebook","Stimuli/Stimuli_Grayscaled/Food/Cabbage_grayscaled_1.png","aphant","masked","1",-2.99573227355399,-0.490558525912911
"p_359aaf68a73a6a7f","no","yes",0.1,"1","Stimuli/Stimuli_Grayscaled/Food/Bread_grayscaled_1.png","Food",1,0.1801,"yes",55,32,"facebook","aphantasia_facebook","Stimuli/Stimuli_Grayscaled/Food/Bread_grayscaled_1.png","aphant","masked","1",-2.30258509299405,0.639799725147786
"p_359aaf68a73a6a7f","no","yes",0.1,"1","Stimuli/Stimuli_Grayscaled/Toys/BathToys_grayscaled_1.png","Toys",1,1.1006,"yes",55,32,"facebook","aphantasia_facebook","Stimuli/Stimuli_Grayscaled/Toys/BathToys_grayscaled_1.png","aphant","masked","1",-2.30258509299405,0.639799725147786
"p_359aaf68a73a6a7f","no","no",0.1,"1","Stimuli/Stimuli_Grayscaled/Food/Pear_grayscaled_1.png","Food",1,1.1598,"yes",55,32,"facebook","aphantasia_facebook","Stimuli/Stimuli_Grayscaled/Food/Pear_grayscaled_1.png","aphant","unmasked","1",-2.30258509299405,0.639799725147786
"p_359aaf68a73a6a7f","no","yes",0.1,"1","Stimuli/Stimuli_Grayscaled/Clothing/HaremPants_grayscaled_1.png","Clothing",1,0.6169,"yes",55,32,"facebook","aphantasia_facebook","Stimuli/Stimuli_Grayscaled/Clothing/HaremPants_grayscaled_1.png","aphant","masked","1",-2.30258509299405,0.639799725147786
"p_359aaf68a73a6a7f","no","no",0.05,"1","Stimuli/Stimuli_Grayscaled/Food/Burger_grayscaled_1.png","Food",0,1.0005,"yes",55,32,"facebook","aphantasia_facebook","Stimuli/Stimuli_Grayscaled/Food/Burger_grayscaled_1.png","aphant","unmasked","1",-2.99573227355399,-0.490558525912911
"p_359aaf68a73a6a7f","no","no",0.15,"1","Stimuli/Stimuli_Grayscaled/Tools/Shovel_grayscaled_1.png","Tools",1,0.9614,"yes",55,32,"facebook","aphantasia_facebook","Stimuli/Stimuli_Grayscaled/Tools/Shovel_grayscaled_1.png","aphant","unmasked","1",-1.89711998488588,1.30101691439904
"p_359aaf68a73a6a7f","no","yes",0.075,"1","Stimuli/Stimuli_Grayscaled/Tools/ScrewDriver_grayscaled_1.png","Tools",0,7.1061,"yes",55,32,"facebook","aphantasia_facebook","Stimuli/Stimuli_Grayscaled/Tools/ScrewDriver_grayscaled_1.png","aphant","masked","1",-2.59026716544583,0.170658663338346
"p_359aaf68a73a6a7f","no","yes",0.025,"1","Stimuli/Stimuli_Grayscaled/Food/Bagel_grayscaled_1.png","Food",1,0.6006,"yes",55,32,"facebook","aphantasia_facebook","Stimuli/Stimuli_Grayscaled/Food/Bagel_grayscaled_1.png","aphant","masked","1",-3.68887945411394,-1.62091677697361
"p_359aaf68a73a6a7f","no","no",0.025,"1","Stimuli/Stimuli_Grayscaled/Food/Potato_grayscaled_1.png","Food",1,0.584,"yes",55,32,"facebook","aphantasia_facebook","Stimuli/Stimuli_Grayscaled/Food/Potato_grayscaled_1.png","aphant","unmasked","1",-3.68887945411394,-1.62091677697361
"p_359aaf68a73a6a7f","no","no",0.05,"1","Stimuli/Stimuli_Grayscaled/Toys/Rattle_grayscaled_1.png","Toys",1,0.6388,"yes",55,32,"facebook","aphantasia_facebook","Stimuli/Stimuli_Grayscaled/Toys/Rattle_grayscaled_1.png","aphant","unmasked","1",-2.99573227355399,-0.490558525912911
"p_359aaf68a73a6a7f","no","no",0.05,"1","Stimuli/Stimuli_Grayscaled/Clothing/Saree_grayscaled_1.png","Clothing",1,0.605,"yes",55,32,"facebook","aphantasia_facebook","Stimuli/Stimuli_Grayscaled/Clothing/Saree_grayscaled_1.png","aphant","unmasked","1",-2.99573227355399,-0.490558525912911
"p_359aaf68a73a6a7f","no","no",0.075,"1","Stimuli/Stimuli_Grayscaled/Tools/PaperCutter_grayscaled_1.png","Tools",1,0.8592,"yes",55,32,"facebook","aphantasia_facebook","Stimuli/Stimuli_Grayscaled/Tools/PaperCutter_grayscaled_1.png","aphant","unmasked","1",-2.59026716544583,0.170658663338346
"p_359aaf68a73a6a7f","no","no",0.075,"1","Stimuli/Stimuli_Grayscaled/Food/Pie_grayscaled_1.png","Food",1,1.0442,"yes",55,32,"facebook","aphantasia_facebook","Stimuli/Stimuli_Grayscaled/Food/Pie_grayscaled_1.png","aphant","unmasked","1",-2.59026716544583,0.170658663338346
"p_359aaf68a73a6a7f","no","yes",0.15,"1","Stimuli/Stimuli_Grayscaled/Tools/LawnMower_grayscaled_1.png","Tools",1,0.5734,"yes",55,32,"facebook","aphantasia_facebook","Stimuli/Stimuli_Grayscaled/Tools/LawnMower_grayscaled_1.png","aphant","masked","1",-1.89711998488588,1.30101691439904
"p_359aaf68a73a6a7f","no","yes",0.15,"1","Stimuli/Stimuli_Grayscaled/Food/Kiwi_grayscaled_1.png","Food",1,0.4429,"yes",55,32,"facebook","aphantasia_facebook","Stimuli/Stimuli_Grayscaled/Food/Kiwi_grayscaled_1.png","aphant","masked","1",-1.89711998488588,1.30101691439904
"p_359aaf68a73a6a7f","no","yes",0.05,"1","Stimuli/Stimuli_Grayscaled/Toys/BlockBucket_grayscaled_1.png","Toys",1,0.2591,"yes",55,32,"facebook","aphantasia_facebook","Stimuli/Stimuli_Grayscaled/Toys/BlockBucket_grayscaled_1.png","aphant","masked","1",-2.99573227355399,-0.490558525912911
"p_359aaf68a73a6a7f","no","no",0.025,"1","Stimuli/Stimuli_Grayscaled/Toys/BaseballBat_grayscaled_1.png","Toys",0,0.6452,"yes",55,32,"facebook","aphantasia_facebook","Stimuli/Stimuli_Grayscaled/Toys/BaseballBat_grayscaled_1.png","aphant","unmasked","1",-3.68887945411394,-1.62091677697361
"p_359aaf68a73a6a7f","no","no",0.075,"1","Stimuli/Stimuli_Grayscaled/Clothing/Romper_grayscaled_1.png","Clothing",1,0.0888,"yes",55,32,"facebook","aphantasia_facebook","Stimuli/Stimuli_Grayscaled/Clothing/Romper_grayscaled_1.png","aphant","unmasked","1",-2.59026716544583,0.170658663338346
"p_359aaf68a73a6a7f","no","no",0.05,"1","Stimuli/Stimuli_Grayscaled/Tools/ChopSaw_grayscaled_1.png","Tools",1,1.2358,"yes",55,32,"facebook","aphantasia_facebook","Stimuli/Stimuli_Grayscaled/Tools/ChopSaw_grayscaled_1.png","aphant","unmasked","1",-2.99573227355399,-0.490558525912911
"p_359aaf68a73a6a7f","no","yes",0.05,"1","Stimuli/Stimuli_Grayscaled/Tools/Ratchet_grayscaled_1.png","Tools",1,0.6506,"yes",55,32,"facebook","aphantasia_facebook","Stimuli/Stimuli_Grayscaled/Tools/Ratchet_grayscaled_1.png","aphant","masked","1",-2.99573227355399,-0.490558525912911
"p_359aaf68a73a6a7f","no","no",0.15,"1","Stimuli/Stimuli_Grayscaled/Toys/Dinosaur_grayscaled_1.png","Toys",1,0.4507,"yes",55,32,"facebook","aphantasia_facebook","Stimuli/Stimuli_Grayscaled/Toys/Dinosaur_grayscaled_1.png","aphant","unmasked","1",-1.89711998488588,1.30101691439904
"p_359aaf68a73a6a7f","no","no",0.025,"1","Stimuli/Stimuli_Grayscaled/Clothing/Hat_grayscaled_1.png","Clothing",1,0.6679,"yes",55,32,"facebook","aphantasia_facebook","Stimuli/Stimuli_Grayscaled/Clothing/Hat_grayscaled_1.png","aphant","unmasked","1",-3.68887945411394,-1.62091677697361
"p_359aaf68a73a6a7f","no","yes",0.05,"1","Stimuli/Stimuli_Grayscaled/Clothing/Socks_grayscaled_1.png","Clothing",1,0.5659,"yes",55,32,"facebook","aphantasia_facebook","Stimuli/Stimuli_Grayscaled/Clothing/Socks_grayscaled_1.png","aphant","masked","1",-2.99573227355399,-0.490558525912911
"p_359aaf68a73a6a7f","no","yes",0.025,"1","Stimuli/Stimuli_Grayscaled/Tools/Pincers_grayscaled_1.png","Tools",1,1.7016,"yes",55,32,"facebook","aphantasia_facebook","Stimuli/Stimuli_Grayscaled/Tools/Pincers_grayscaled_1.png","aphant","masked","1",-3.68887945411394,-1.62091677697361
"p_359aaf68a73a6a7f","no","yes",0.1,"1","Stimuli/Stimuli_Grayscaled/Tools/Hammer_grayscaled_1.png","Tools",1,0.5251,"yes",55,32,"facebook","aphantasia_facebook","Stimuli/Stimuli_Grayscaled/Tools/Hammer_grayscaled_1.png","aphant","masked","1",-2.30258509299405,0.639799725147786
"p_359aaf68a73a6a7f","no","no",0.1,"1","Stimuli/Stimuli_Grayscaled/Toys/Barbie_grayscaled_1.png","Toys",1,0.4696,"yes",55,32,"facebook","aphantasia_facebook","Stimuli/Stimuli_Grayscaled/Toys/Barbie_grayscaled_1.png","aphant","unmasked","1",-2.30258509299405,0.639799725147786
"p_359aaf68a73a6a7f","no","yes",0.15,"1","Stimuli/Stimuli_Grayscaled/Clothing/PajamaTop_grayscaled_1.png","Clothing",1,0.5998,"yes",55,32,"facebook","aphantasia_facebook","Stimuli/Stimuli_Grayscaled/Clothing/PajamaTop_grayscaled_1.png","aphant","masked","1",-1.89711998488588,1.30101691439904
"p_359aaf68a73a6a7f","no","yes",0.15,"1","Stimuli/Stimuli_Grayscaled/Toys/BallInACup_grayscaled_1.png","Toys",1,0.0668,"yes",55,32,"facebook","aphantasia_facebook","Stimuli/Stimuli_Grayscaled/Toys/BallInACup_grayscaled_1.png","aphant","masked","1",-1.89711998488588,1.30101691439904
"p_359aaf68a73a6a7f","no","no",0.1,"1","Stimuli/Stimuli_Grayscaled/Tools/LeafBlower_grayscaled_1.png","Tools",1,0.9033,"yes",55,32,"facebook","aphantasia_facebook","Stimuli/Stimuli_Grayscaled/Tools/LeafBlower_grayscaled_1.png","aphant","unmasked","1",-2.30258509299405,0.639799725147786
"p_359aaf68a73a6a7f","no","no",0.05,"2","Stimuli/Stimuli_Grayscaled/Tools/Axe_grayscaled_2.png","Tools",1,0.5186,"yes",55,32,"facebook","aphantasia_facebook","Stimuli/Stimuli_Grayscaled/Tools/Axe_grayscaled_2.png","aphant","unmasked","2",-2.99573227355399,-0.490558525912911
"p_359aaf68a73a6a7f","no","no",0.075,"2","Stimuli/Stimuli_Grayscaled/Food/Carrot_grayscaled_2.png","Food",0,0.9763,"yes",55,32,"facebook","aphantasia_facebook","Stimuli/Stimuli_Grayscaled/Food/Carrot_grayscaled_2.png","aphant","unmasked","2",-2.59026716544583,0.170658663338346
"p_359aaf68a73a6a7f","no","no",0.075,"2","Stimuli/Stimuli_Grayscaled/Toys/StuffedRabbit_grayscaled_2.png","Toys",1,1.0993,"yes",55,32,"facebook","aphantasia_facebook","Stimuli/Stimuli_Grayscaled/Toys/StuffedRabbit_grayscaled_2.png","aphant","unmasked","2",-2.59026716544583,0.170658663338346
"p_359aaf68a73a6a7f","no","no",0.05,"2","Stimuli/Stimuli_Grayscaled/Food/Bread_grayscaled_2.png","Food",1,1.2008,"yes",55,32,"facebook","aphantasia_facebook","Stimuli/Stimuli_Grayscaled/Food/Bread_grayscaled_2.png","aphant","unmasked","2",-2.99573227355399,-0.490558525912911
"p_359aaf68a73a6a7f","no","yes",0.075,"2","Stimuli/Stimuli_Grayscaled/Clothing/Robe_grayscaled_2.png","Clothing",1,0.8358,"yes",55,32,"facebook","aphantasia_facebook","Stimuli/Stimuli_Grayscaled/Clothing/Robe_grayscaled_2.png","aphant","masked","2",-2.59026716544583,0.170658663338346
"p_359aaf68a73a6a7f","no","yes",0.15,"2","Stimuli/Stimuli_Grayscaled/Toys/StuffedBear_grayscaled_2.png","Toys",1,0.6176,"yes",55,32,"facebook","aphantasia_facebook","Stimuli/Stimuli_Grayscaled/Toys/StuffedBear_grayscaled_2.png","aphant","masked","2",-1.89711998488588,1.30101691439904
"p_359aaf68a73a6a7f","no","no",0.025,"2","Stimuli/Stimuli_Grayscaled/Clothing/Gumboots_grayscaled_2.png","Clothing",1,0.9105,"yes",55,32,"facebook","aphantasia_facebook","Stimuli/Stimuli_Grayscaled/Clothing/Gumboots_grayscaled_2.png","aphant","unmasked","2",-3.68887945411394,-1.62091677697361
"p_359aaf68a73a6a7f","no","no",0.15,"2","Stimuli/Stimuli_Grayscaled/Toys/NerfGun_grayscaled_2.png","Toys",1,0.7561,"yes",55,32,"facebook","aphantasia_facebook","Stimuli/Stimuli_Grayscaled/Toys/NerfGun_grayscaled_2.png","aphant","unmasked","2",-1.89711998488588,1.30101691439904
"p_359aaf68a73a6a7f","no","yes",0.05,"2","Stimuli/Stimuli_Grayscaled/Clothing/Saree_grayscaled_2.png","Clothing",1,1.4406,"yes",55,32,"facebook","aphantasia_facebook","Stimuli/Stimuli_Grayscaled/Clothing/Saree_grayscaled_2.png","aphant","masked","2",-2.99573227355399,-0.490558525912911
"p_359aaf68a73a6a7f","no","no",0.15,"2","Stimuli/Stimuli_Grayscaled/Clothing/Beanie_grayscaled_2.png","Clothing",1,0.5176,"yes",55,32,"facebook","aphantasia_facebook","Stimuli/Stimuli_Grayscaled/Clothing/Beanie_grayscaled_2.png","aphant","unmasked","2",-1.89711998488588,1.30101691439904
"p_359aaf68a73a6a7f","no","no",0.025,"2","Stimuli/Stimuli_Grayscaled/Tools/Snip_grayscaled_2.png","Tools",1,1.2018,"yes",55,32,"facebook","aphantasia_facebook","Stimuli/Stimuli_Grayscaled/Tools/Snip_grayscaled_2.png","aphant","unmasked","2",-3.68887945411394,-1.62091677697361
"p_359aaf68a73a6a7f","no","no",0.05,"2","Stimuli/Stimuli_Grayscaled/Clothing/Shirt_grayscaled_2.png","Clothing",1,2.319,"yes",55,32,"facebook","aphantasia_facebook","Stimuli/Stimuli_Grayscaled/Clothing/Shirt_grayscaled_2.png","aphant","unmasked","2",-2.99573227355399,-0.490558525912911
"p_359aaf68a73a6a7f","no","yes",0.075,"2","Stimuli/Stimuli_Grayscaled/Toys/StuffedElephant_grayscaled_2.png","Toys",1,0.8682,"yes",55,32,"facebook","aphantasia_facebook","Stimuli/Stimuli_Grayscaled/Toys/StuffedElephant_grayscaled_2.png","aphant","masked","2",-2.59026716544583,0.170658663338346
"p_359aaf68a73a6a7f","no","no",0.15,"2","Stimuli/Stimuli_Grayscaled/Tools/MeasuringTape_grayscaled_2.png","Tools",1,0.6165,"yes",55,32,"facebook","aphantasia_facebook","Stimuli/Stimuli_Grayscaled/Tools/MeasuringTape_grayscaled_2.png","aphant","unmasked","2",-1.89711998488588,1.30101691439904
"p_359aaf68a73a6a7f","no","no",0.05,"2","Stimuli/Stimuli_Grayscaled/Toys/PelletDrumRattle_grayscaled_2.png","Toys",1,1.0081,"yes",55,32,"facebook","aphantasia_facebook","Stimuli/Stimuli_Grayscaled/Toys/PelletDrumRattle_grayscaled_2.png","aphant","unmasked","2",-2.99573227355399,-0.490558525912911
"p_359aaf68a73a6a7f","no","yes",0.025,"2","Stimuli/Stimuli_Grayscaled/Food/Kiwi_grayscaled_2.png","Food",1,0.6332,"yes",55,32,"facebook","aphantasia_facebook","Stimuli/Stimuli_Grayscaled/Food/Kiwi_grayscaled_2.png","aphant","masked","2",-3.68887945411394,-1.62091677697361
"p_359aaf68a73a6a7f","no","no",0.1,"2","Stimuli/Stimuli_Grayscaled/Food/Cookie_grayscaled_2.png","Food",1,0.725,"yes",55,32,"facebook","aphantasia_facebook","Stimuli/Stimuli_Grayscaled/Food/Cookie_grayscaled_2.png","aphant","unmasked","2",-2.30258509299405,0.639799725147786
"p_359aaf68a73a6a7f","no","yes",0.1,"2","Stimuli/Stimuli_Grayscaled/Tools/HandRake_grayscaled_2.png","Tools",1,0.7771,"yes",55,32,"facebook","aphantasia_facebook","Stimuli/Stimuli_Grayscaled/Tools/HandRake_grayscaled_2.png","aphant","masked","2",-2.30258509299405,0.639799725147786
"p_359aaf68a73a6a7f","no","yes",0.075,"2","Stimuli/Stimuli_Grayscaled/Food/BakedPotato_grayscaled_2.png","Food",1,1.8556,"yes",55,32,"facebook","aphantasia_facebook","Stimuli/Stimuli_Grayscaled/Food/BakedPotato_grayscaled_2.png","aphant","masked","2",-2.59026716544583,0.170658663338346
"p_359aaf68a73a6a7f","no","no",0.1,"2","Stimuli/Stimuli_Grayscaled/Clothing/Coat_grayscaled_2.png","Clothing",1,0.9709,"yes",55,32,"facebook","aphantasia_facebook","Stimuli/Stimuli_Grayscaled/Clothing/Coat_grayscaled_2.png","aphant","unmasked","2",-2.30258509299405,0.639799725147786
"p_359aaf68a73a6a7f","no","yes",0.15,"2","Stimuli/Stimuli_Grayscaled/Clothing/FlipFlop_grayscaled_2.png","Clothing",1,4e-04,"yes",55,32,"facebook","aphantasia_facebook","Stimuli/Stimuli_Grayscaled/Clothing/FlipFlop_grayscaled_2.png","aphant","masked","2",-1.89711998488588,1.30101691439904
"p_359aaf68a73a6a7f","no","yes",0.05,"2","Stimuli/Stimuli_Grayscaled/Food/HotDog_grayscaled_2.png","Food",1,0.8782,"yes",55,32,"facebook","aphantasia_facebook","Stimuli/Stimuli_Grayscaled/Food/HotDog_grayscaled_2.png","aphant","masked","2",-2.99573227355399,-0.490558525912911
"p_359aaf68a73a6a7f","no","yes",0.05,"2","Stimuli/Stimuli_Grayscaled/Toys/Tent_grayscaled_2.png","Toys",1,1.0655,"yes",55,32,"facebook","aphantasia_facebook","Stimuli/Stimuli_Grayscaled/Toys/Tent_grayscaled_2.png","aphant","masked","2",-2.99573227355399,-0.490558525912911
"p_359aaf68a73a6a7f","no","yes",0.1,"2","Stimuli/Stimuli_Grayscaled/Food/Pizza_grayscaled_2.png","Food",1,1.1104,"yes",55,32,"facebook","aphantasia_facebook","Stimuli/Stimuli_Grayscaled/Food/Pizza_grayscaled_2.png","aphant","masked","2",-2.30258509299405,0.639799725147786
"p_359aaf68a73a6a7f","no","no",0.15,"2","Stimuli/Stimuli_Grayscaled/Food/Burger_grayscaled_2.png","Food",1,0.5943,"yes",55,32,"facebook","aphantasia_facebook","Stimuli/Stimuli_Grayscaled/Food/Burger_grayscaled_2.png","aphant","unmasked","2",-1.89711998488588,1.30101691439904
"p_359aaf68a73a6a7f","no","no",0.1,"2","Stimuli/Stimuli_Grayscaled/Tools/Pliers_grayscaled_2.png","Tools",1,0.6099,"yes",55,32,"facebook","aphantasia_facebook","Stimuli/Stimuli_Grayscaled/Tools/Pliers_grayscaled_2.png","aphant","unmasked","2",-2.30258509299405,0.639799725147786
"p_359aaf68a73a6a7f","no","yes",0.025,"2","Stimuli/Stimuli_Grayscaled/Tools/JackHammer_grayscaled_2.png","Tools",1,1.595,"yes",55,32,"facebook","aphantasia_facebook","Stimuli/Stimuli_Grayscaled/Tools/JackHammer_grayscaled_2.png","aphant","masked","2",-3.68887945411394,-1.62091677697361
"p_359aaf68a73a6a7f","no","yes",0.15,"2","Stimuli/Stimuli_Grayscaled/Food/Chips_grayscaled_2.png","Food",1,0.8057,"yes",55,32,"facebook","aphantasia_facebook","Stimuli/Stimuli_Grayscaled/Food/Chips_grayscaled_2.png","aphant","masked","2",-1.89711998488588,1.30101691439904
"p_359aaf68a73a6a7f","no","no",0.025,"2","Stimuli/Stimuli_Grayscaled/Toys/StuffedOwl_grayscaled_2.png","Toys",1,1.3735,"yes",55,32,"facebook","aphantasia_facebook","Stimuli/Stimuli_Grayscaled/Toys/StuffedOwl_grayscaled_2.png","aphant","unmasked","2",-3.68887945411394,-1.62091677697361
"p_359aaf68a73a6a7f","no","yes",0.025,"2","Stimuli/Stimuli_Grayscaled/Clothing/Jeans_grayscaled_2.png","Clothing",0,0.644,"yes",55,32,"facebook","aphantasia_facebook","Stimuli/Stimuli_Grayscaled/Clothing/Jeans_grayscaled_2.png","aphant","masked","2",-3.68887945411394,-1.62091677697361
"p_359aaf68a73a6a7f","no","yes",0.1,"2","Stimuli/Stimuli_Grayscaled/Clothing/SportsBra_grayscaled_2.png","Clothing",1,0.7664,"yes",55,32,"facebook","aphantasia_facebook","Stimuli/Stimuli_Grayscaled/Clothing/SportsBra_grayscaled_2.png","aphant","masked","2",-2.30258509299405,0.639799725147786
"p_359aaf68a73a6a7f","no","yes",0.025,"2","Stimuli/Stimuli_Grayscaled/Toys/Mobile_grayscaled_2.png","Toys",0,0.5673,"yes",55,32,"facebook","aphantasia_facebook","Stimuli/Stimuli_Grayscaled/Toys/Mobile_grayscaled_2.png","aphant","masked","2",-3.68887945411394,-1.62091677697361
"p_359aaf68a73a6a7f","no","no",0.075,"2","Stimuli/Stimuli_Grayscaled/Tools/PaperCutter_grayscaled_2.png","Tools",1,0.7753,"yes",55,32,"facebook","aphantasia_facebook","Stimuli/Stimuli_Grayscaled/Tools/PaperCutter_grayscaled_2.png","aphant","unmasked","2",-2.59026716544583,0.170658663338346
"p_359aaf68a73a6a7f","no","no",0.025,"2","Stimuli/Stimuli_Grayscaled/Food/Banana_grayscaled_2.png","Food",1,1.4773,"yes",55,32,"facebook","aphantasia_facebook","Stimuli/Stimuli_Grayscaled/Food/Banana_grayscaled_2.png","aphant","unmasked","2",-3.68887945411394,-1.62091677697361
"p_359aaf68a73a6a7f","no","yes",0.05,"2","Stimuli/Stimuli_Grayscaled/Tools/ChopSaw_grayscaled_2.png","Tools",1,0.8191,"yes",55,32,"facebook","aphantasia_facebook","Stimuli/Stimuli_Grayscaled/Tools/ChopSaw_grayscaled_2.png","aphant","masked","2",-2.99573227355399,-0.490558525912911
"p_359aaf68a73a6a7f","no","yes",0.1,"2","Stimuli/Stimuli_Grayscaled/Toys/Drum_grayscaled_2.png","Toys",1,0.8282,"yes",55,32,"facebook","aphantasia_facebook","Stimuli/Stimuli_Grayscaled/Toys/Drum_grayscaled_2.png","aphant","masked","2",-2.30258509299405,0.639799725147786
"p_359aaf68a73a6a7f","no","no",0.075,"2","Stimuli/Stimuli_Grayscaled/Clothing/Slippers_grayscaled_2.png","Clothing",1,0.7354,"yes",55,32,"facebook","aphantasia_facebook","Stimuli/Stimuli_Grayscaled/Clothing/Slippers_grayscaled_2.png","aphant","unmasked","2",-2.59026716544583,0.170658663338346
"p_359aaf68a73a6a7f","no","yes",0.075,"2","Stimuli/Stimuli_Grayscaled/Tools/File_grayscaled_2.png","Tools",1,0.9559,"yes",55,32,"facebook","aphantasia_facebook","Stimuli/Stimuli_Grayscaled/Tools/File_grayscaled_2.png","aphant","masked","2",-2.59026716544583,0.170658663338346
"p_359aaf68a73a6a7f","no","no",0.1,"2","Stimuli/Stimuli_Grayscaled/Toys/Float_grayscaled_2.png","Toys",1,0.7956,"yes",55,32,"facebook","aphantasia_facebook","Stimuli/Stimuli_Grayscaled/Toys/Float_grayscaled_2.png","aphant","unmasked","2",-2.30258509299405,0.639799725147786
"p_359aaf68a73a6a7f","no","yes",0.15,"2","Stimuli/Stimuli_Grayscaled/Tools/Hammer_grayscaled_2.png","Tools",1,0.6666,"yes",55,32,"facebook","aphantasia_facebook","Stimuli/Stimuli_Grayscaled/Tools/Hammer_grayscaled_2.png","aphant","masked","2",-1.89711998488588,1.30101691439904
"p_6e29a00f3e8415e3","no","yes",0.075,"2","Stimuli/Stimuli_Grayscaled/Clothing/Beanie_grayscaled_2.png","Clothing",1,2.9928,"yes",39,32,"facebook","aphantasia_facebook","Stimuli/Stimuli_Grayscaled/Clothing/Beanie_grayscaled_2.png","aphant","masked","2",-2.59026716544583,0.170658663338346
"p_6e29a00f3e8415e3","no","yes",0.15,"2","Stimuli/Stimuli_Grayscaled/Food/Cauliflower_grayscaled_2.png","Food",1,0.7067,"yes",39,32,"facebook","aphantasia_facebook","Stimuli/Stimuli_Grayscaled/Food/Cauliflower_grayscaled_2.png","aphant","masked","2",-1.89711998488588,1.30101691439904
"p_6e29a00f3e8415e3","no","yes",0.1,"2","Stimuli/Stimuli_Grayscaled/Clothing/DenimJacket_grayscaled_2.png","Clothing",1,0.6285,"yes",39,32,"facebook","aphantasia_facebook","Stimuli/Stimuli_Grayscaled/Clothing/DenimJacket_grayscaled_2.png","aphant","masked","2",-2.30258509299405,0.639799725147786
"p_6e29a00f3e8415e3","no","yes",0.1,"2","Stimuli/Stimuli_Grayscaled/Toys/StuffedBear_grayscaled_2.png","Toys",1,1.4543,"yes",39,32,"facebook","aphantasia_facebook","Stimuli/Stimuli_Grayscaled/Toys/StuffedBear_grayscaled_2.png","aphant","masked","2",-2.30258509299405,0.639799725147786
"p_6e29a00f3e8415e3","no","yes",0.025,"2","Stimuli/Stimuli_Grayscaled/Food/Lemon_grayscaled_2.png","Food",1,1.0503,"yes",39,32,"facebook","aphantasia_facebook","Stimuli/Stimuli_Grayscaled/Food/Lemon_grayscaled_2.png","aphant","masked","2",-3.68887945411394,-1.62091677697361
"p_6e29a00f3e8415e3","no","yes",0.1,"2","Stimuli/Stimuli_Grayscaled/Food/IceCream_grayscaled_2.png","Food",1,1.5835,"yes",39,32,"facebook","aphantasia_facebook","Stimuli/Stimuli_Grayscaled/Food/IceCream_grayscaled_2.png","aphant","masked","2",-2.30258509299405,0.639799725147786
"p_6e29a00f3e8415e3","no","yes",0.075,"2","Stimuli/Stimuli_Grayscaled/Toys/Slide_grayscaled_2.png","Toys",1,1.2006,"yes",39,32,"facebook","aphantasia_facebook","Stimuli/Stimuli_Grayscaled/Toys/Slide_grayscaled_2.png","aphant","masked","2",-2.59026716544583,0.170658663338346
"p_6e29a00f3e8415e3","no","no",0.1,"2","Stimuli/Stimuli_Grayscaled/Tools/HandTruck_grayscaled_2.png","Tools",1,1.2004,"yes",39,32,"facebook","aphantasia_facebook","Stimuli/Stimuli_Grayscaled/Tools/HandTruck_grayscaled_2.png","aphant","unmasked","2",-2.30258509299405,0.639799725147786
"p_6e29a00f3e8415e3","no","no",0.025,"2","Stimuli/Stimuli_Grayscaled/Food/GreenPepper_grayscaled_2.png","Food",1,1.9003,"yes",39,32,"facebook","aphantasia_facebook","Stimuli/Stimuli_Grayscaled/Food/GreenPepper_grayscaled_2.png","aphant","unmasked","2",-3.68887945411394,-1.62091677697361
"p_6e29a00f3e8415e3","no","yes",0.025,"2","Stimuli/Stimuli_Grayscaled/Toys/BallInACup_grayscaled_2.png","Toys",1,2.7837,"yes",39,32,"facebook","aphantasia_facebook","Stimuli/Stimuli_Grayscaled/Toys/BallInACup_grayscaled_2.png","aphant","masked","2",-3.68887945411394,-1.62091677697361
"p_6e29a00f3e8415e3","no","no",0.05,"2","Stimuli/Stimuli_Grayscaled/Tools/Grinder_grayscaled_2.png","Tools",1,0.6071,"yes",39,32,"facebook","aphantasia_facebook","Stimuli/Stimuli_Grayscaled/Tools/Grinder_grayscaled_2.png","aphant","unmasked","2",-2.99573227355399,-0.490558525912911
"p_6e29a00f3e8415e3","no","yes",0.05,"2","Stimuli/Stimuli_Grayscaled/Clothing/FlipFlop_grayscaled_2.png","Clothing",1,0.49,"yes",39,32,"facebook","aphantasia_facebook","Stimuli/Stimuli_Grayscaled/Clothing/FlipFlop_grayscaled_2.png","aphant","masked","2",-2.99573227355399,-0.490558525912911
"p_6e29a00f3e8415e3","no","no",0.05,"2","Stimuli/Stimuli_Grayscaled/Food/Carrot_grayscaled_2.png","Food",0,0.9617,"yes",39,32,"facebook","aphantasia_facebook","Stimuli/Stimuli_Grayscaled/Food/Carrot_grayscaled_2.png","aphant","unmasked","2",-2.99573227355399,-0.490558525912911
"p_6e29a00f3e8415e3","no","no",0.1,"2","Stimuli/Stimuli_Grayscaled/Toys/EtchASketch_grayscaled_2.png","Toys",1,0.9057,"yes",39,32,"facebook","aphantasia_facebook","Stimuli/Stimuli_Grayscaled/Toys/EtchASketch_grayscaled_2.png","aphant","unmasked","2",-2.30258509299405,0.639799725147786
"p_6e29a00f3e8415e3","no","no",0.05,"2","Stimuli/Stimuli_Grayscaled/Toys/Abacus_grayscaled_2.png","Toys",1,1.0274,"yes",39,32,"facebook","aphantasia_facebook","Stimuli/Stimuli_Grayscaled/Toys/Abacus_grayscaled_2.png","aphant","unmasked","2",-2.99573227355399,-0.490558525912911
"p_6e29a00f3e8415e3","no","no",0.05,"2","Stimuli/Stimuli_Grayscaled/Clothing/SnowCoat_grayscaled_2.png","Clothing",1,1.6295,"yes",39,32,"facebook","aphantasia_facebook","Stimuli/Stimuli_Grayscaled/Clothing/SnowCoat_grayscaled_2.png","aphant","unmasked","2",-2.99573227355399,-0.490558525912911
"p_6e29a00f3e8415e3","no","no",0.1,"2","Stimuli/Stimuli_Grayscaled/Clothing/Blazer_grayscaled_2.png","Clothing",1,0.0141,"yes",39,32,"facebook","aphantasia_facebook","Stimuli/Stimuli_Grayscaled/Clothing/Blazer_grayscaled_2.png","aphant","unmasked","2",-2.30258509299405,0.639799725147786
"p_6e29a00f3e8415e3","no","yes",0.075,"2","Stimuli/Stimuli_Grayscaled/Food/Pie_grayscaled_2.png","Food",1,1.063,"yes",39,32,"facebook","aphantasia_facebook","Stimuli/Stimuli_Grayscaled/Food/Pie_grayscaled_2.png","aphant","masked","2",-2.59026716544583,0.170658663338346
"p_6e29a00f3e8415e3","no","yes",0.025,"2","Stimuli/Stimuli_Grayscaled/Clothing/PajamaTop_grayscaled_2.png","Clothing",1,1.0132,"yes",39,32,"facebook","aphantasia_facebook","Stimuli/Stimuli_Grayscaled/Clothing/PajamaTop_grayscaled_2.png","aphant","masked","2",-3.68887945411394,-1.62091677697361
"p_6e29a00f3e8415e3","no","no",0.075,"2","Stimuli/Stimuli_Grayscaled/Toys/BlockBucket_grayscaled_2.png","Toys",1,0.7506,"yes",39,32,"facebook","aphantasia_facebook","Stimuli/Stimuli_Grayscaled/Toys/BlockBucket_grayscaled_2.png","aphant","unmasked","2",-2.59026716544583,0.170658663338346
"p_6e29a00f3e8415e3","no","yes",0.05,"2","Stimuli/Stimuli_Grayscaled/Food/Cabbage_grayscaled_2.png","Food",1,0.6898,"yes",39,32,"facebook","aphantasia_facebook","Stimuli/Stimuli_Grayscaled/Food/Cabbage_grayscaled_2.png","aphant","masked","2",-2.99573227355399,-0.490558525912911
"p_6e29a00f3e8415e3","no","no",0.075,"2","Stimuli/Stimuli_Grayscaled/Clothing/Coat_grayscaled_2.png","Clothing",1,1.7308,"yes",39,32,"facebook","aphantasia_facebook","Stimuli/Stimuli_Grayscaled/Clothing/Coat_grayscaled_2.png","aphant","unmasked","2",-2.59026716544583,0.170658663338346
"p_6e29a00f3e8415e3","no","no",0.075,"2","Stimuli/Stimuli_Grayscaled/Tools/LawnMower_grayscaled_2.png","Tools",1,0.6004,"yes",39,32,"facebook","aphantasia_facebook","Stimuli/Stimuli_Grayscaled/Tools/LawnMower_grayscaled_2.png","aphant","unmasked","2",-2.59026716544583,0.170658663338346
"p_6e29a00f3e8415e3","no","no",0.15,"2","Stimuli/Stimuli_Grayscaled/Clothing/Gloves_grayscaled_2.png","Clothing",1,0.827,"yes",39,32,"facebook","aphantasia_facebook","Stimuli/Stimuli_Grayscaled/Clothing/Gloves_grayscaled_2.png","aphant","unmasked","2",-1.89711998488588,1.30101691439904
"p_6e29a00f3e8415e3","no","no",0.075,"2","Stimuli/Stimuli_Grayscaled/Food/Beetroot_grayscaled_2.png","Food",1,0.683,"yes",39,32,"facebook","aphantasia_facebook","Stimuli/Stimuli_Grayscaled/Food/Beetroot_grayscaled_2.png","aphant","unmasked","2",-2.59026716544583,0.170658663338346
"p_6e29a00f3e8415e3","no","yes",0.025,"2","Stimuli/Stimuli_Grayscaled/Tools/PaperCutter_grayscaled_2.png","Tools",1,0.9109,"yes",39,32,"facebook","aphantasia_facebook","Stimuli/Stimuli_Grayscaled/Tools/PaperCutter_grayscaled_2.png","aphant","masked","2",-3.68887945411394,-1.62091677697361
"p_6e29a00f3e8415e3","no","no",0.15,"2","Stimuli/Stimuli_Grayscaled/Food/Corn_grayscaled_2.png","Food",1,4.1638,"yes",39,32,"facebook","aphantasia_facebook","Stimuli/Stimuli_Grayscaled/Food/Corn_grayscaled_2.png","aphant","unmasked","2",-1.89711998488588,1.30101691439904
"p_6e29a00f3e8415e3","no","no",0.025,"2","Stimuli/Stimuli_Grayscaled/Toys/Ball_grayscaled_2.png","Toys",1,0.6554,"yes",39,32,"facebook","aphantasia_facebook","Stimuli/Stimuli_Grayscaled/Toys/Ball_grayscaled_2.png","aphant","unmasked","2",-3.68887945411394,-1.62091677697361
"p_6e29a00f3e8415e3","no","yes",0.05,"2","Stimuli/Stimuli_Grayscaled/Tools/Axe_grayscaled_2.png","Tools",1,0.5864,"yes",39,32,"facebook","aphantasia_facebook","Stimuli/Stimuli_Grayscaled/Tools/Axe_grayscaled_2.png","aphant","masked","2",-2.99573227355399,-0.490558525912911
"p_6e29a00f3e8415e3","no","yes",0.075,"2","Stimuli/Stimuli_Grayscaled/Tools/ScrewDriver_grayscaled_2.png","Tools",1,0.6449,"yes",39,32,"facebook","aphantasia_facebook","Stimuli/Stimuli_Grayscaled/Tools/ScrewDriver_grayscaled_2.png","aphant","masked","2",-2.59026716544583,0.170658663338346
"p_6e29a00f3e8415e3","no","yes",0.15,"2","Stimuli/Stimuli_Grayscaled/Tools/Flashlight_grayscaled_2.png","Tools",1,0.5099,"yes",39,32,"facebook","aphantasia_facebook","Stimuli/Stimuli_Grayscaled/Tools/Flashlight_grayscaled_2.png","aphant","masked","2",-1.89711998488588,1.30101691439904
"p_6e29a00f3e8415e3","no","no",0.1,"2","Stimuli/Stimuli_Grayscaled/Food/Orange_grayscaled_2.png","Food",1,0.6337,"yes",39,32,"facebook","aphantasia_facebook","Stimuli/Stimuli_Grayscaled/Food/Orange_grayscaled_2.png","aphant","unmasked","2",-2.30258509299405,0.639799725147786
"p_6e29a00f3e8415e3","no","yes",0.05,"2","Stimuli/Stimuli_Grayscaled/Toys/Balloon_grayscaled_2.png","Toys",1,0.5503,"yes",39,32,"facebook","aphantasia_facebook","Stimuli/Stimuli_Grayscaled/Toys/Balloon_grayscaled_2.png","aphant","masked","2",-2.99573227355399,-0.490558525912911
"p_6e29a00f3e8415e3","no","no",0.15,"2","Stimuli/Stimuli_Grayscaled/Tools/Pliers_grayscaled_2.png","Tools",1,0.9005,"yes",39,32,"facebook","aphantasia_facebook","Stimuli/Stimuli_Grayscaled/Tools/Pliers_grayscaled_2.png","aphant","unmasked","2",-1.89711998488588,1.30101691439904
"p_6e29a00f3e8415e3","no","no",0.025,"2","Stimuli/Stimuli_Grayscaled/Clothing/Scarf_grayscaled_2.png","Clothing",1,0.6184,"yes",39,32,"facebook","aphantasia_facebook","Stimuli/Stimuli_Grayscaled/Clothing/Scarf_grayscaled_2.png","aphant","unmasked","2",-3.68887945411394,-1.62091677697361
"p_6e29a00f3e8415e3","no","no",0.15,"2","Stimuli/Stimuli_Grayscaled/Toys/Rattle_grayscaled_2.png","Toys",1,0.8673,"yes",39,32,"facebook","aphantasia_facebook","Stimuli/Stimuli_Grayscaled/Toys/Rattle_grayscaled_2.png","aphant","unmasked","2",-1.89711998488588,1.30101691439904
"p_6e29a00f3e8415e3","no","yes",0.1,"2","Stimuli/Stimuli_Grayscaled/Tools/Pipe_grayscaled_2.png","Tools",1,0.6442,"yes",39,32,"facebook","aphantasia_facebook","Stimuli/Stimuli_Grayscaled/Tools/Pipe_grayscaled_2.png","aphant","masked","2",-2.30258509299405,0.639799725147786
"p_6e29a00f3e8415e3","no","yes",0.15,"2","Stimuli/Stimuli_Grayscaled/Clothing/Bikini_grayscaled_2.png","Clothing",1,0.731,"yes",39,32,"facebook","aphantasia_facebook","Stimuli/Stimuli_Grayscaled/Clothing/Bikini_grayscaled_2.png","aphant","masked","2",-1.89711998488588,1.30101691439904
"p_6e29a00f3e8415e3","no","no",0.025,"2","Stimuli/Stimuli_Grayscaled/Tools/Ratchet_grayscaled_2.png","Tools",1,1.2245,"yes",39,32,"facebook","aphantasia_facebook","Stimuli/Stimuli_Grayscaled/Tools/Ratchet_grayscaled_2.png","aphant","unmasked","2",-3.68887945411394,-1.62091677697361
"p_6e29a00f3e8415e3","no","yes",0.15,"2","Stimuli/Stimuli_Grayscaled/Toys/Drum_grayscaled_2.png","Toys",1,1.7525,"yes",39,32,"facebook","aphantasia_facebook","Stimuli/Stimuli_Grayscaled/Toys/Drum_grayscaled_2.png","aphant","masked","2",-1.89711998488588,1.30101691439904
"p_6e29a00f3e8415e3","no","no",0.15,"1","Stimuli/Stimuli_Grayscaled/Food/Apple_grayscaled_1.png","Food",1,0.5508,"yes",39,32,"facebook","aphantasia_facebook","Stimuli/Stimuli_Grayscaled/Food/Apple_grayscaled_1.png","aphant","unmasked","1",-1.89711998488588,1.30101691439904
"p_6e29a00f3e8415e3","no","no",0.025,"1","Stimuli/Stimuli_Grayscaled/Toys/ActivityGym_grayscaled_1.png","Toys",1,0.6923,"yes",39,32,"facebook","aphantasia_facebook","Stimuli/Stimuli_Grayscaled/Toys/ActivityGym_grayscaled_1.png","aphant","unmasked","1",-3.68887945411394,-1.62091677697361
"p_6e29a00f3e8415e3","no","no",0.075,"1","Stimuli/Stimuli_Grayscaled/Toys/Drum_grayscaled_1.png","Toys",1,0.6506,"yes",39,32,"facebook","aphantasia_facebook","Stimuli/Stimuli_Grayscaled/Toys/Drum_grayscaled_1.png","aphant","unmasked","1",-2.59026716544583,0.170658663338346
"p_6e29a00f3e8415e3","no","yes",0.05,"1","Stimuli/Stimuli_Grayscaled/Toys/NerfGun_grayscaled_1.png","Toys",0,0.5247,"yes",39,32,"facebook","aphantasia_facebook","Stimuli/Stimuli_Grayscaled/Toys/NerfGun_grayscaled_1.png","aphant","masked","1",-2.99573227355399,-0.490558525912911
"p_6e29a00f3e8415e3","no","no",0.075,"1","Stimuli/Stimuli_Grayscaled/Tools/BoltCutter_grayscaled_1.png","Tools",1,0.457,"yes",39,32,"facebook","aphantasia_facebook","Stimuli/Stimuli_Grayscaled/Tools/BoltCutter_grayscaled_1.png","aphant","unmasked","1",-2.59026716544583,0.170658663338346
"p_6e29a00f3e8415e3","no","no",0.025,"1","Stimuli/Stimuli_Grayscaled/Clothing/Gumboots_grayscaled_1.png","Clothing",1,0.5049,"yes",39,32,"facebook","aphantasia_facebook","Stimuli/Stimuli_Grayscaled/Clothing/Gumboots_grayscaled_1.png","aphant","unmasked","1",-3.68887945411394,-1.62091677697361
"p_6e29a00f3e8415e3","no","no",0.025,"1","Stimuli/Stimuli_Grayscaled/Tools/Shovel_grayscaled_1.png","Tools",1,0.7839,"yes",39,32,"facebook","aphantasia_facebook","Stimuli/Stimuli_Grayscaled/Tools/Shovel_grayscaled_1.png","aphant","unmasked","1",-3.68887945411394,-1.62091677697361
"p_6e29a00f3e8415e3","no","yes",0.075,"1","Stimuli/Stimuli_Grayscaled/Food/Chocolate_grayscaled_1.png","Food",1,0.6117,"yes",39,32,"facebook","aphantasia_facebook","Stimuli/Stimuli_Grayscaled/Food/Chocolate_grayscaled_1.png","aphant","masked","1",-2.59026716544583,0.170658663338346
"p_6e29a00f3e8415e3","no","yes",0.025,"1","Stimuli/Stimuli_Grayscaled/Food/Cheese_grayscaled_1.png","Food",1,0.6753,"yes",39,32,"facebook","aphantasia_facebook","Stimuli/Stimuli_Grayscaled/Food/Cheese_grayscaled_1.png","aphant","masked","1",-3.68887945411394,-1.62091677697361
"p_6e29a00f3e8415e3","no","no",0.05,"1","Stimuli/Stimuli_Grayscaled/Food/GreenPepper_grayscaled_1.png","Food",1,0.629,"yes",39,32,"facebook","aphantasia_facebook","Stimuli/Stimuli_Grayscaled/Food/GreenPepper_grayscaled_1.png","aphant","unmasked","1",-2.99573227355399,-0.490558525912911
"p_6e29a00f3e8415e3","no","yes",0.1,"1","Stimuli/Stimuli_Grayscaled/Tools/ChopSaw_grayscaled_1.png","Tools",1,0.6738,"yes",39,32,"facebook","aphantasia_facebook","Stimuli/Stimuli_Grayscaled/Tools/ChopSaw_grayscaled_1.png","aphant","masked","1",-2.30258509299405,0.639799725147786
"p_6e29a00f3e8415e3","no","yes",0.05,"1","Stimuli/Stimuli_Grayscaled/Tools/PaintTray_grayscaled_1.png","Tools",1,0.5897,"yes",39,32,"facebook","aphantasia_facebook","Stimuli/Stimuli_Grayscaled/Tools/PaintTray_grayscaled_1.png","aphant","masked","1",-2.99573227355399,-0.490558525912911
"p_6e29a00f3e8415e3","no","yes",0.025,"1","Stimuli/Stimuli_Grayscaled/Toys/Mobile_grayscaled_1.png","Toys",1,0.5084,"yes",39,32,"facebook","aphantasia_facebook","Stimuli/Stimuli_Grayscaled/Toys/Mobile_grayscaled_1.png","aphant","masked","1",-3.68887945411394,-1.62091677697361
"p_6e29a00f3e8415e3","no","no",0.1,"1","Stimuli/Stimuli_Grayscaled/Food/Pear_grayscaled_1.png","Food",1,0.5397,"yes",39,32,"facebook","aphantasia_facebook","Stimuli/Stimuli_Grayscaled/Food/Pear_grayscaled_1.png","aphant","unmasked","1",-2.30258509299405,0.639799725147786
"p_6e29a00f3e8415e3","no","no",0.1,"1","Stimuli/Stimuli_Grayscaled/Tools/ScrewDriver_grayscaled_1.png","Tools",1,0.5839,"yes",39,32,"facebook","aphantasia_facebook","Stimuli/Stimuli_Grayscaled/Tools/ScrewDriver_grayscaled_1.png","aphant","unmasked","1",-2.30258509299405,0.639799725147786
"p_6e29a00f3e8415e3","no","yes",0.075,"1","Stimuli/Stimuli_Grayscaled/Tools/Level_grayscaled_1.png","Tools",1,0.487,"yes",39,32,"facebook","aphantasia_facebook","Stimuli/Stimuli_Grayscaled/Tools/Level_grayscaled_1.png","aphant","masked","1",-2.59026716544583,0.170658663338346
"p_6e29a00f3e8415e3","no","yes",0.025,"1","Stimuli/Stimuli_Grayscaled/Clothing/Skirt_grayscaled_1.png","Clothing",1,0.7009,"yes",39,32,"facebook","aphantasia_facebook","Stimuli/Stimuli_Grayscaled/Clothing/Skirt_grayscaled_1.png","aphant","masked","1",-3.68887945411394,-1.62091677697361
"p_6e29a00f3e8415e3","no","yes",0.05,"1","Stimuli/Stimuli_Grayscaled/Food/Eggplant_grayscaled_1.png","Food",1,0.5669,"yes",39,32,"facebook","aphantasia_facebook","Stimuli/Stimuli_Grayscaled/Food/Eggplant_grayscaled_1.png","aphant","masked","1",-2.99573227355399,-0.490558525912911
"p_6e29a00f3e8415e3","no","yes",0.1,"1","Stimuli/Stimuli_Grayscaled/Clothing/Sweatpants_grayscaled_1.png","Clothing",1,0.935,"yes",39,32,"facebook","aphantasia_facebook","Stimuli/Stimuli_Grayscaled/Clothing/Sweatpants_grayscaled_1.png","aphant","masked","1",-2.30258509299405,0.639799725147786
"p_6e29a00f3e8415e3","no","no",0.15,"1","Stimuli/Stimuli_Grayscaled/Clothing/Hat_grayscaled_1.png","Clothing",1,1.1508,"yes",39,32,"facebook","aphantasia_facebook","Stimuli/Stimuli_Grayscaled/Clothing/Hat_grayscaled_1.png","aphant","unmasked","1",-1.89711998488588,1.30101691439904
"p_6e29a00f3e8415e3","no","no",0.1,"1","Stimuli/Stimuli_Grayscaled/Toys/Doll_grayscaled_1.png","Toys",1,0.6445,"yes",39,32,"facebook","aphantasia_facebook","Stimuli/Stimuli_Grayscaled/Toys/Doll_grayscaled_1.png","aphant","unmasked","1",-2.30258509299405,0.639799725147786
"p_6e29a00f3e8415e3","no","yes",0.075,"1","Stimuli/Stimuli_Grayscaled/Clothing/Sweater_grayscaled_1.png","Clothing",1,0.8167,"yes",39,32,"facebook","aphantasia_facebook","Stimuli/Stimuli_Grayscaled/Clothing/Sweater_grayscaled_1.png","aphant","masked","1",-2.59026716544583,0.170658663338346
"p_6e29a00f3e8415e3","no","yes",0.075,"1","Stimuli/Stimuli_Grayscaled/Toys/Float_grayscaled_1.png","Toys",1,0.5751,"yes",39,32,"facebook","aphantasia_facebook","Stimuli/Stimuli_Grayscaled/Toys/Float_grayscaled_1.png","aphant","masked","1",-2.59026716544583,0.170658663338346
"p_6e29a00f3e8415e3","no","yes",0.15,"1","Stimuli/Stimuli_Grayscaled/Tools/Axe_grayscaled_1.png","Tools",1,0.5638,"yes",39,32,"facebook","aphantasia_facebook","Stimuli/Stimuli_Grayscaled/Tools/Axe_grayscaled_1.png","aphant","masked","1",-1.89711998488588,1.30101691439904
"p_6e29a00f3e8415e3","no","yes",0.05,"1","Stimuli/Stimuli_Grayscaled/Clothing/Scarf_grayscaled_1.png","Clothing",1,0.7517,"yes",39,32,"facebook","aphantasia_facebook","Stimuli/Stimuli_Grayscaled/Clothing/Scarf_grayscaled_1.png","aphant","masked","1",-2.99573227355399,-0.490558525912911
"p_6e29a00f3e8415e3","no","no",0.075,"1","Stimuli/Stimuli_Grayscaled/Food/IceCream_grayscaled_1.png","Food",1,0.6863,"yes",39,32,"facebook","aphantasia_facebook","Stimuli/Stimuli_Grayscaled/Food/IceCream_grayscaled_1.png","aphant","unmasked","1",-2.59026716544583,0.170658663338346
"p_6e29a00f3e8415e3","no","no",0.025,"1","Stimuli/Stimuli_Grayscaled/Food/Orange_grayscaled_1.png","Food",1,0.4933,"yes",39,32,"facebook","aphantasia_facebook","Stimuli/Stimuli_Grayscaled/Food/Orange_grayscaled_1.png","aphant","unmasked","1",-3.68887945411394,-1.62091677697361
"p_6e29a00f3e8415e3","no","yes",0.15,"1","Stimuli/Stimuli_Grayscaled/Clothing/Saree_grayscaled_1.png","Clothing",1,0.5338,"yes",39,32,"facebook","aphantasia_facebook","Stimuli/Stimuli_Grayscaled/Clothing/Saree_grayscaled_1.png","aphant","masked","1",-1.89711998488588,1.30101691439904
"p_6e29a00f3e8415e3","no","no",0.05,"1","Stimuli/Stimuli_Grayscaled/Toys/Pinata_grayscaled_1.png","Toys",1,0.567,"yes",39,32,"facebook","aphantasia_facebook","Stimuli/Stimuli_Grayscaled/Toys/Pinata_grayscaled_1.png","aphant","unmasked","1",-2.99573227355399,-0.490558525912911
"p_6e29a00f3e8415e3","no","no",0.15,"1","Stimuli/Stimuli_Grayscaled/Tools/BlacksmithTongs_grayscaled_1.png","Tools",1,0.7378,"yes",39,32,"facebook","aphantasia_facebook","Stimuli/Stimuli_Grayscaled/Tools/BlacksmithTongs_grayscaled_1.png","aphant","unmasked","1",-1.89711998488588,1.30101691439904
"p_6e29a00f3e8415e3","no","no",0.1,"1","Stimuli/Stimuli_Grayscaled/Clothing/Bikini_grayscaled_1.png","Clothing",1,0.523,"yes",39,32,"facebook","aphantasia_facebook","Stimuli/Stimuli_Grayscaled/Clothing/Bikini_grayscaled_1.png","aphant","unmasked","1",-2.30258509299405,0.639799725147786
"p_6e29a00f3e8415e3","no","no",0.05,"1","Stimuli/Stimuli_Grayscaled/Clothing/Coat_grayscaled_1.png","Clothing",1,0.6083,"yes",39,32,"facebook","aphantasia_facebook","Stimuli/Stimuli_Grayscaled/Clothing/Coat_grayscaled_1.png","aphant","unmasked","1",-2.99573227355399,-0.490558525912911
"p_6e29a00f3e8415e3","no","yes",0.1,"1","Stimuli/Stimuli_Grayscaled/Food/HotDog_grayscaled_1.png","Food",1,0.6399,"yes",39,32,"facebook","aphantasia_facebook","Stimuli/Stimuli_Grayscaled/Food/HotDog_grayscaled_1.png","aphant","masked","1",-2.30258509299405,0.639799725147786
"p_6e29a00f3e8415e3","no","yes",0.1,"1","Stimuli/Stimuli_Grayscaled/Toys/EtchASketch_grayscaled_1.png","Toys",1,0.6336,"yes",39,32,"facebook","aphantasia_facebook","Stimuli/Stimuli_Grayscaled/Toys/EtchASketch_grayscaled_1.png","aphant","masked","1",-2.30258509299405,0.639799725147786
"p_6e29a00f3e8415e3","no","yes",0.15,"1","Stimuli/Stimuli_Grayscaled/Food/Lemon_grayscaled_1.png","Food",1,1.1749,"yes",39,32,"facebook","aphantasia_facebook","Stimuli/Stimuli_Grayscaled/Food/Lemon_grayscaled_1.png","aphant","masked","1",-1.89711998488588,1.30101691439904
"p_6e29a00f3e8415e3","no","no",0.075,"1","Stimuli/Stimuli_Grayscaled/Clothing/FlipFlop_grayscaled_1.png","Clothing",1,0.5503,"yes",39,32,"facebook","aphantasia_facebook","Stimuli/Stimuli_Grayscaled/Clothing/FlipFlop_grayscaled_1.png","aphant","unmasked","1",-2.59026716544583,0.170658663338346
"p_6e29a00f3e8415e3","no","no",0.05,"1","Stimuli/Stimuli_Grayscaled/Tools/ClampBar_grayscaled_1.png","Tools",1,0.5515,"yes",39,32,"facebook","aphantasia_facebook","Stimuli/Stimuli_Grayscaled/Tools/ClampBar_grayscaled_1.png","aphant","unmasked","1",-2.99573227355399,-0.490558525912911
"p_6e29a00f3e8415e3","no","no",0.15,"1","Stimuli/Stimuli_Grayscaled/Toys/Bicycle_grayscaled_1.png","Toys",1,0.8342,"yes",39,32,"facebook","aphantasia_facebook","Stimuli/Stimuli_Grayscaled/Toys/Bicycle_grayscaled_1.png","aphant","unmasked","1",-1.89711998488588,1.30101691439904
"p_6e29a00f3e8415e3","no","yes",0.15,"1","Stimuli/Stimuli_Grayscaled/Toys/StuffedHippo_grayscaled_1.png","Toys",1,0.6619,"yes",39,32,"facebook","aphantasia_facebook","Stimuli/Stimuli_Grayscaled/Toys/StuffedHippo_grayscaled_1.png","aphant","masked","1",-1.89711998488588,1.30101691439904
"p_6e29a00f3e8415e3","no","yes",0.025,"1","Stimuli/Stimuli_Grayscaled/Tools/PaintRoller_grayscaled_1.png","Tools",1,0.6951,"yes",39,32,"facebook","aphantasia_facebook","Stimuli/Stimuli_Grayscaled/Tools/PaintRoller_grayscaled_1.png","aphant","masked","1",-3.68887945411394,-1.62091677697361
"p_4a5786612a9365cd","no","no",0.05,"2","Stimuli/Stimuli_Grayscaled/Tools/PaperCutter_grayscaled_2.png","Tools",0,2.0562,"yes",38,32,"facebook","aphantasia_facebook","Stimuli/Stimuli_Grayscaled/Tools/PaperCutter_grayscaled_2.png","aphant","unmasked","2",-2.99573227355399,-0.490558525912911
"p_4a5786612a9365cd","no","yes",0.025,"2","Stimuli/Stimuli_Grayscaled/Clothing/Gloves_grayscaled_2.png","Clothing",1,1.4244,"yes",38,32,"facebook","aphantasia_facebook","Stimuli/Stimuli_Grayscaled/Clothing/Gloves_grayscaled_2.png","aphant","masked","2",-3.68887945411394,-1.62091677697361
"p_4a5786612a9365cd","no","yes",0.075,"2","Stimuli/Stimuli_Grayscaled/Food/Pancake_grayscaled_2.png","Food",1,1.0055,"yes",38,32,"facebook","aphantasia_facebook","Stimuli/Stimuli_Grayscaled/Food/Pancake_grayscaled_2.png","aphant","masked","2",-2.59026716544583,0.170658663338346
"p_4a5786612a9365cd","no","yes",0.025,"2","Stimuli/Stimuli_Grayscaled/Toys/Slinky_grayscaled_2.png","Toys",1,2.0003,"yes",38,32,"facebook","aphantasia_facebook","Stimuli/Stimuli_Grayscaled/Toys/Slinky_grayscaled_2.png","aphant","masked","2",-3.68887945411394,-1.62091677697361
"p_4a5786612a9365cd","no","no",0.075,"2","Stimuli/Stimuli_Grayscaled/Clothing/Blazer_grayscaled_2.png","Clothing",1,1.0211,"yes",38,32,"facebook","aphantasia_facebook","Stimuli/Stimuli_Grayscaled/Clothing/Blazer_grayscaled_2.png","aphant","unmasked","2",-2.59026716544583,0.170658663338346
"p_4a5786612a9365cd","no","no",0.025,"2","Stimuli/Stimuli_Grayscaled/Toys/Blanket_grayscaled_2.png","Toys",1,1.6358,"yes",38,32,"facebook","aphantasia_facebook","Stimuli/Stimuli_Grayscaled/Toys/Blanket_grayscaled_2.png","aphant","unmasked","2",-3.68887945411394,-1.62091677697361
"p_4a5786612a9365cd","no","no",0.025,"2","Stimuli/Stimuli_Grayscaled/Clothing/Bikini_grayscaled_2.png","Clothing",1,0.6932,"yes",38,32,"facebook","aphantasia_facebook","Stimuli/Stimuli_Grayscaled/Clothing/Bikini_grayscaled_2.png","aphant","unmasked","2",-3.68887945411394,-1.62091677697361
"p_4a5786612a9365cd","no","no",0.15,"2","Stimuli/Stimuli_Grayscaled/Food/Pizza_grayscaled_2.png","Food",1,1.0283,"yes",38,32,"facebook","aphantasia_facebook","Stimuli/Stimuli_Grayscaled/Food/Pizza_grayscaled_2.png","aphant","unmasked","2",-1.89711998488588,1.30101691439904
"p_4a5786612a9365cd","no","yes",0.1,"2","Stimuli/Stimuli_Grayscaled/Toys/Float_grayscaled_2.png","Toys",1,0.8922,"yes",38,32,"facebook","aphantasia_facebook","Stimuli/Stimuli_Grayscaled/Toys/Float_grayscaled_2.png","aphant","masked","2",-2.30258509299405,0.639799725147786
"p_4a5786612a9365cd","no","yes",0.1,"2","Stimuli/Stimuli_Grayscaled/Clothing/PajamaTop_grayscaled_2.png","Clothing",1,0.5177,"yes",38,32,"facebook","aphantasia_facebook","Stimuli/Stimuli_Grayscaled/Clothing/PajamaTop_grayscaled_2.png","aphant","masked","2",-2.30258509299405,0.639799725147786
"p_4a5786612a9365cd","no","yes",0.075,"2","Stimuli/Stimuli_Grayscaled/Clothing/Robe_grayscaled_2.png","Clothing",1,0.5342,"yes",38,32,"facebook","aphantasia_facebook","Stimuli/Stimuli_Grayscaled/Clothing/Robe_grayscaled_2.png","aphant","masked","2",-2.59026716544583,0.170658663338346
"p_4a5786612a9365cd","no","no",0.15,"2","Stimuli/Stimuli_Grayscaled/Clothing/Scarf_grayscaled_2.png","Clothing",1,0.5744,"yes",38,32,"facebook","aphantasia_facebook","Stimuli/Stimuli_Grayscaled/Clothing/Scarf_grayscaled_2.png","aphant","unmasked","2",-1.89711998488588,1.30101691439904
"p_4a5786612a9365cd","no","yes",0.1,"2","Stimuli/Stimuli_Grayscaled/Food/Cake_grayscaled_2.png","Food",1,1.1055,"yes",38,32,"facebook","aphantasia_facebook","Stimuli/Stimuli_Grayscaled/Food/Cake_grayscaled_2.png","aphant","masked","2",-2.30258509299405,0.639799725147786
"p_4a5786612a9365cd","no","no",0.075,"2","Stimuli/Stimuli_Grayscaled/Tools/HackSaw_grayscaled_2.png","Tools",1,1.0508,"yes",38,32,"facebook","aphantasia_facebook","Stimuli/Stimuli_Grayscaled/Tools/HackSaw_grayscaled_2.png","aphant","unmasked","2",-2.59026716544583,0.170658663338346
"p_4a5786612a9365cd","no","yes",0.15,"2","Stimuli/Stimuli_Grayscaled/Toys/StuffedOwl_grayscaled_2.png","Toys",1,1.2174,"yes",38,32,"facebook","aphantasia_facebook","Stimuli/Stimuli_Grayscaled/Toys/StuffedOwl_grayscaled_2.png","aphant","masked","2",-1.89711998488588,1.30101691439904
"p_4a5786612a9365cd","no","yes",0.05,"2","Stimuli/Stimuli_Grayscaled/Clothing/LeatherJacket_grayscaled_2.png","Clothing",1,0.701,"yes",38,32,"facebook","aphantasia_facebook","Stimuli/Stimuli_Grayscaled/Clothing/LeatherJacket_grayscaled_2.png","aphant","masked","2",-2.99573227355399,-0.490558525912911
"p_4a5786612a9365cd","no","yes",0.075,"2","Stimuli/Stimuli_Grayscaled/Toys/StuffedRabbit_grayscaled_2.png","Toys",1,1.0015,"yes",38,32,"facebook","aphantasia_facebook","Stimuli/Stimuli_Grayscaled/Toys/StuffedRabbit_grayscaled_2.png","aphant","masked","2",-2.59026716544583,0.170658663338346
"p_4a5786612a9365cd","no","no",0.15,"2","Stimuli/Stimuli_Grayscaled/Toys/JackInTheBox_grayscaled_2.png","Toys",1,1.19,"yes",38,32,"facebook","aphantasia_facebook","Stimuli/Stimuli_Grayscaled/Toys/JackInTheBox_grayscaled_2.png","aphant","unmasked","2",-1.89711998488588,1.30101691439904
"p_4a5786612a9365cd","no","no",0.025,"2","Stimuli/Stimuli_Grayscaled/Food/Cheese_grayscaled_2.png","Food",1,1.174,"yes",38,32,"facebook","aphantasia_facebook","Stimuli/Stimuli_Grayscaled/Food/Cheese_grayscaled_2.png","aphant","unmasked","2",-3.68887945411394,-1.62091677697361
"p_4a5786612a9365cd","no","no",0.05,"2","Stimuli/Stimuli_Grayscaled/Toys/Drum_grayscaled_2.png","Toys",1,1.3844,"yes",38,32,"facebook","aphantasia_facebook","Stimuli/Stimuli_Grayscaled/Toys/Drum_grayscaled_2.png","aphant","unmasked","2",-2.99573227355399,-0.490558525912911
"p_4a5786612a9365cd","no","no",0.1,"2","Stimuli/Stimuli_Grayscaled/Food/Pumpkin_grayscaled_2.png","Food",1,1.0613,"yes",38,32,"facebook","aphantasia_facebook","Stimuli/Stimuli_Grayscaled/Food/Pumpkin_grayscaled_2.png","aphant","unmasked","2",-2.30258509299405,0.639799725147786
"p_4a5786612a9365cd","no","yes",0.15,"2","Stimuli/Stimuli_Grayscaled/Tools/Axe_grayscaled_2.png","Tools",1,0.9117,"yes",38,32,"facebook","aphantasia_facebook","Stimuli/Stimuli_Grayscaled/Tools/Axe_grayscaled_2.png","aphant","masked","2",-1.89711998488588,1.30101691439904
"p_4a5786612a9365cd","no","no",0.075,"2","Stimuli/Stimuli_Grayscaled/Food/Beetroot_grayscaled_2.png","Food",1,3.2509,"yes",38,32,"facebook","aphantasia_facebook","Stimuli/Stimuli_Grayscaled/Food/Beetroot_grayscaled_2.png","aphant","unmasked","2",-2.59026716544583,0.170658663338346
"p_4a5786612a9365cd","no","yes",0.05,"2","Stimuli/Stimuli_Grayscaled/Food/Pie_grayscaled_2.png","Food",1,0.5838,"yes",38,32,"facebook","aphantasia_facebook","Stimuli/Stimuli_Grayscaled/Food/Pie_grayscaled_2.png","aphant","masked","2",-2.99573227355399,-0.490558525912911
"p_4a5786612a9365cd","no","yes",0.025,"2","Stimuli/Stimuli_Grayscaled/Food/IceCream_grayscaled_2.png","Food",1,0.474,"yes",38,32,"facebook","aphantasia_facebook","Stimuli/Stimuli_Grayscaled/Food/IceCream_grayscaled_2.png","aphant","masked","2",-3.68887945411394,-1.62091677697361
"p_4a5786612a9365cd","no","yes",0.025,"2","Stimuli/Stimuli_Grayscaled/Tools/JackHammer_grayscaled_2.png","Tools",1,0.5344,"yes",38,32,"facebook","aphantasia_facebook","Stimuli/Stimuli_Grayscaled/Tools/JackHammer_grayscaled_2.png","aphant","masked","2",-3.68887945411394,-1.62091677697361
"p_4a5786612a9365cd","no","no",0.1,"2","Stimuli/Stimuli_Grayscaled/Clothing/PajamaBottoms_grayscaled_2.png","Clothing",1,0.7845,"yes",38,32,"facebook","aphantasia_facebook","Stimuli/Stimuli_Grayscaled/Clothing/PajamaBottoms_grayscaled_2.png","aphant","unmasked","2",-2.30258509299405,0.639799725147786
"p_4a5786612a9365cd","no","no",0.075,"2","Stimuli/Stimuli_Grayscaled/Toys/StackingLoops_grayscaled_2.png","Toys",1,0.5214,"yes",38,32,"facebook","aphantasia_facebook","Stimuli/Stimuli_Grayscaled/Toys/StackingLoops_grayscaled_2.png","aphant","unmasked","2",-2.59026716544583,0.170658663338346
"p_4a5786612a9365cd","no","no",0.025,"2","Stimuli/Stimuli_Grayscaled/Tools/BoltCutter_grayscaled_2.png","Tools",1,0.7248,"yes",38,32,"facebook","aphantasia_facebook","Stimuli/Stimuli_Grayscaled/Tools/BoltCutter_grayscaled_2.png","aphant","unmasked","2",-3.68887945411394,-1.62091677697361
"p_4a5786612a9365cd","no","no",0.15,"2","Stimuli/Stimuli_Grayscaled/Tools/PaintRoller_grayscaled_2.png","Tools",1,0.784,"yes",38,32,"facebook","aphantasia_facebook","Stimuli/Stimuli_Grayscaled/Tools/PaintRoller_grayscaled_2.png","aphant","unmasked","2",-1.89711998488588,1.30101691439904
"p_4a5786612a9365cd","no","no",0.05,"2","Stimuli/Stimuli_Grayscaled/Clothing/ActivewearShorts_grayscaled_2.png","Clothing",1,0.6945,"yes",38,32,"facebook","aphantasia_facebook","Stimuli/Stimuli_Grayscaled/Clothing/ActivewearShorts_grayscaled_2.png","aphant","unmasked","2",-2.99573227355399,-0.490558525912911
"p_4a5786612a9365cd","no","no",0.05,"2","Stimuli/Stimuli_Grayscaled/Food/Coconut_grayscaled_2.png","Food",1,0.744,"yes",38,32,"facebook","aphantasia_facebook","Stimuli/Stimuli_Grayscaled/Food/Coconut_grayscaled_2.png","aphant","unmasked","2",-2.99573227355399,-0.490558525912911
"p_4a5786612a9365cd","no","yes",0.15,"2","Stimuli/Stimuli_Grayscaled/Food/GreenPepper_grayscaled_2.png","Food",1,0.267,"yes",38,32,"facebook","aphantasia_facebook","Stimuli/Stimuli_Grayscaled/Food/GreenPepper_grayscaled_2.png","aphant","masked","2",-1.89711998488588,1.30101691439904
"p_4a5786612a9365cd","no","yes",0.05,"2","Stimuli/Stimuli_Grayscaled/Tools/ScrewDriver_grayscaled_2.png","Tools",1,0.5715,"yes",38,32,"facebook","aphantasia_facebook","Stimuli/Stimuli_Grayscaled/Tools/ScrewDriver_grayscaled_2.png","aphant","masked","2",-2.99573227355399,-0.490558525912911
"p_4a5786612a9365cd","no","yes",0.15,"2","Stimuli/Stimuli_Grayscaled/Clothing/Belt_grayscaled_2.png","Clothing",1,0.3838,"yes",38,32,"facebook","aphantasia_facebook","Stimuli/Stimuli_Grayscaled/Clothing/Belt_grayscaled_2.png","aphant","masked","2",-1.89711998488588,1.30101691439904
"p_4a5786612a9365cd","no","no",0.1,"2","Stimuli/Stimuli_Grayscaled/Tools/Chisel_grayscaled_2.png","Tools",1,1.0395,"yes",38,32,"facebook","aphantasia_facebook","Stimuli/Stimuli_Grayscaled/Tools/Chisel_grayscaled_2.png","aphant","unmasked","2",-2.30258509299405,0.639799725147786
"p_4a5786612a9365cd","no","yes",0.1,"2","Stimuli/Stimuli_Grayscaled/Tools/File_grayscaled_2.png","Tools",1,1.7551,"yes",38,32,"facebook","aphantasia_facebook","Stimuli/Stimuli_Grayscaled/Tools/File_grayscaled_2.png","aphant","masked","2",-2.30258509299405,0.639799725147786
"p_4a5786612a9365cd","no","no",0.1,"2","Stimuli/Stimuli_Grayscaled/Toys/Rattle_grayscaled_2.png","Toys",0,1.5777,"yes",38,32,"facebook","aphantasia_facebook","Stimuli/Stimuli_Grayscaled/Toys/Rattle_grayscaled_2.png","aphant","unmasked","2",-2.30258509299405,0.639799725147786
"p_4a5786612a9365cd","no","yes",0.05,"2","Stimuli/Stimuli_Grayscaled/Toys/Ball_grayscaled_2.png","Toys",1,0.2765,"yes",38,32,"facebook","aphantasia_facebook","Stimuli/Stimuli_Grayscaled/Toys/Ball_grayscaled_2.png","aphant","masked","2",-2.99573227355399,-0.490558525912911
"p_4a5786612a9365cd","no","yes",0.075,"2","Stimuli/Stimuli_Grayscaled/Tools/Hammer_grayscaled_2.png","Tools",1,0.5688,"yes",38,32,"facebook","aphantasia_facebook","Stimuli/Stimuli_Grayscaled/Tools/Hammer_grayscaled_2.png","aphant","masked","2",-2.59026716544583,0.170658663338346
"p_4a5786612a9365cd","no","yes",0.15,"1","Stimuli/Stimuli_Grayscaled/Clothing/Onesie_grayscaled_1.png","Clothing",1,1.3758,"yes",38,32,"facebook","aphantasia_facebook","Stimuli/Stimuli_Grayscaled/Clothing/Onesie_grayscaled_1.png","aphant","masked","1",-1.89711998488588,1.30101691439904
"p_4a5786612a9365cd","no","no",0.15,"1","Stimuli/Stimuli_Grayscaled/Toys/Tent_grayscaled_1.png","Toys",1,2.7109,"yes",38,32,"facebook","aphantasia_facebook","Stimuli/Stimuli_Grayscaled/Toys/Tent_grayscaled_1.png","aphant","unmasked","1",-1.89711998488588,1.30101691439904
"p_4a5786612a9365cd","no","yes",0.025,"1","Stimuli/Stimuli_Grayscaled/Toys/StuffedBear_grayscaled_1.png","Toys",1,0.6509,"yes",38,32,"facebook","aphantasia_facebook","Stimuli/Stimuli_Grayscaled/Toys/StuffedBear_grayscaled_1.png","aphant","masked","1",-3.68887945411394,-1.62091677697361
"p_4a5786612a9365cd","no","no",0.075,"1","Stimuli/Stimuli_Grayscaled/Food/Broccoli_grayscaled_1.png","Food",1,0.5735,"yes",38,32,"facebook","aphantasia_facebook","Stimuli/Stimuli_Grayscaled/Food/Broccoli_grayscaled_1.png","aphant","unmasked","1",-2.59026716544583,0.170658663338346
"p_4a5786612a9365cd","no","no",0.1,"1","Stimuli/Stimuli_Grayscaled/Food/Cauliflower_grayscaled_1.png","Food",1,0.5846,"yes",38,32,"facebook","aphantasia_facebook","Stimuli/Stimuli_Grayscaled/Food/Cauliflower_grayscaled_1.png","aphant","unmasked","1",-2.30258509299405,0.639799725147786
"p_4a5786612a9365cd","no","no",0.025,"1","Stimuli/Stimuli_Grayscaled/Toys/JackInTheBox_grayscaled_1.png","Toys",0,0.173,"yes",38,32,"facebook","aphantasia_facebook","Stimuli/Stimuli_Grayscaled/Toys/JackInTheBox_grayscaled_1.png","aphant","unmasked","1",-3.68887945411394,-1.62091677697361
"p_4a5786612a9365cd","no","no",0.05,"1","Stimuli/Stimuli_Grayscaled/Toys/Slide_grayscaled_1.png","Toys",1,1.524,"yes",38,32,"facebook","aphantasia_facebook","Stimuli/Stimuli_Grayscaled/Toys/Slide_grayscaled_1.png","aphant","unmasked","1",-2.99573227355399,-0.490558525912911
"p_4a5786612a9365cd","no","yes",0.05,"1","Stimuli/Stimuli_Grayscaled/Tools/Axe_grayscaled_1.png","Tools",1,2.9843,"yes",38,32,"facebook","aphantasia_facebook","Stimuli/Stimuli_Grayscaled/Tools/Axe_grayscaled_1.png","aphant","masked","1",-2.99573227355399,-0.490558525912911
"p_4a5786612a9365cd","no","no",0.075,"1","Stimuli/Stimuli_Grayscaled/Toys/Slinky_grayscaled_1.png","Toys",1,1.1075,"yes",38,32,"facebook","aphantasia_facebook","Stimuli/Stimuli_Grayscaled/Toys/Slinky_grayscaled_1.png","aphant","unmasked","1",-2.59026716544583,0.170658663338346
"p_4a5786612a9365cd","no","yes",0.1,"1","Stimuli/Stimuli_Grayscaled/Tools/HandTruck_grayscaled_1.png","Tools",1,0.5242,"yes",38,32,"facebook","aphantasia_facebook","Stimuli/Stimuli_Grayscaled/Tools/HandTruck_grayscaled_1.png","aphant","masked","1",-2.30258509299405,0.639799725147786
"p_4a5786612a9365cd","no","no",0.15,"1","Stimuli/Stimuli_Grayscaled/Clothing/Overalls_grayscaled_1.png","Clothing",1,0.6677,"yes",38,32,"facebook","aphantasia_facebook","Stimuli/Stimuli_Grayscaled/Clothing/Overalls_grayscaled_1.png","aphant","unmasked","1",-1.89711998488588,1.30101691439904
"p_4a5786612a9365cd","no","no",0.075,"1","Stimuli/Stimuli_Grayscaled/Tools/ScrewDriver_grayscaled_1.png","Tools",1,0.6373,"yes",38,32,"facebook","aphantasia_facebook","Stimuli/Stimuli_Grayscaled/Tools/ScrewDriver_grayscaled_1.png","aphant","unmasked","1",-2.59026716544583,0.170658663338346
"p_4a5786612a9365cd","no","no",0.075,"1","Stimuli/Stimuli_Grayscaled/Clothing/SportsBra_grayscaled_1.png","Clothing",1,0.4177,"yes",38,32,"facebook","aphantasia_facebook","Stimuli/Stimuli_Grayscaled/Clothing/SportsBra_grayscaled_1.png","aphant","unmasked","1",-2.59026716544583,0.170658663338346
"p_4a5786612a9365cd","no","yes",0.05,"1","Stimuli/Stimuli_Grayscaled/Toys/BallInACup_grayscaled_1.png","Toys",0,0.7019,"yes",38,32,"facebook","aphantasia_facebook","Stimuli/Stimuli_Grayscaled/Toys/BallInACup_grayscaled_1.png","aphant","masked","1",-2.99573227355399,-0.490558525912911
"p_4a5786612a9365cd","no","yes",0.1,"1","Stimuli/Stimuli_Grayscaled/Toys/BlockBucket_grayscaled_1.png","Toys",1,1.1843,"yes",38,32,"facebook","aphantasia_facebook","Stimuli/Stimuli_Grayscaled/Toys/BlockBucket_grayscaled_1.png","aphant","masked","1",-2.30258509299405,0.639799725147786
"p_4a5786612a9365cd","no","yes",0.1,"1","Stimuli/Stimuli_Grayscaled/Food/Carrot_grayscaled_1.png","Food",1,0.8507,"yes",38,32,"facebook","aphantasia_facebook","Stimuli/Stimuli_Grayscaled/Food/Carrot_grayscaled_1.png","aphant","masked","1",-2.30258509299405,0.639799725147786
"p_4a5786612a9365cd","no","no",0.1,"1","Stimuli/Stimuli_Grayscaled/Tools/BlacksmithTongs_grayscaled_1.png","Tools",1,0.3087,"yes",38,32,"facebook","aphantasia_facebook","Stimuli/Stimuli_Grayscaled/Tools/BlacksmithTongs_grayscaled_1.png","aphant","unmasked","1",-2.30258509299405,0.639799725147786
"p_4a5786612a9365cd","no","yes",0.025,"1","Stimuli/Stimuli_Grayscaled/Clothing/BaseballCap_grayscaled_1.png","Clothing",1,0.4747,"yes",38,32,"facebook","aphantasia_facebook","Stimuli/Stimuli_Grayscaled/Clothing/BaseballCap_grayscaled_1.png","aphant","masked","1",-3.68887945411394,-1.62091677697361
"p_4a5786612a9365cd","no","yes",0.025,"1","Stimuli/Stimuli_Grayscaled/Food/IceCream_grayscaled_1.png","Food",1,0.6137,"yes",38,32,"facebook","aphantasia_facebook","Stimuli/Stimuli_Grayscaled/Food/IceCream_grayscaled_1.png","aphant","masked","1",-3.68887945411394,-1.62091677697361
"p_4a5786612a9365cd","no","no",0.05,"1","Stimuli/Stimuli_Grayscaled/Tools/ServiceCart_grayscaled_1.png","Tools",1,1.2904,"yes",38,32,"facebook","aphantasia_facebook","Stimuli/Stimuli_Grayscaled/Tools/ServiceCart_grayscaled_1.png","aphant","unmasked","1",-2.99573227355399,-0.490558525912911
"p_4a5786612a9365cd","no","no",0.1,"1","Stimuli/Stimuli_Grayscaled/Clothing/Jeans_grayscaled_1.png","Clothing",1,0.3619,"yes",38,32,"facebook","aphantasia_facebook","Stimuli/Stimuli_Grayscaled/Clothing/Jeans_grayscaled_1.png","aphant","unmasked","1",-2.30258509299405,0.639799725147786
"p_4a5786612a9365cd","no","no",0.15,"1","Stimuli/Stimuli_Grayscaled/Food/Banana_grayscaled_1.png","Food",1,0.9745,"yes",38,32,"facebook","aphantasia_facebook","Stimuli/Stimuli_Grayscaled/Food/Banana_grayscaled_1.png","aphant","unmasked","1",-1.89711998488588,1.30101691439904
"p_4a5786612a9365cd","no","yes",0.15,"1","Stimuli/Stimuli_Grayscaled/Tools/File_grayscaled_1.png","Tools",1,0.4754,"yes",38,32,"facebook","aphantasia_facebook","Stimuli/Stimuli_Grayscaled/Tools/File_grayscaled_1.png","aphant","masked","1",-1.89711998488588,1.30101691439904
"p_4a5786612a9365cd","no","no",0.15,"1","Stimuli/Stimuli_Grayscaled/Tools/MeasuringTape_grayscaled_1.png","Tools",1,0.8272,"yes",38,32,"facebook","aphantasia_facebook","Stimuli/Stimuli_Grayscaled/Tools/MeasuringTape_grayscaled_1.png","aphant","unmasked","1",-1.89711998488588,1.30101691439904
"p_4a5786612a9365cd","no","no",0.025,"1","Stimuli/Stimuli_Grayscaled/Clothing/Bikini_grayscaled_1.png","Clothing",1,0.584,"yes",38,32,"facebook","aphantasia_facebook","Stimuli/Stimuli_Grayscaled/Clothing/Bikini_grayscaled_1.png","aphant","unmasked","1",-3.68887945411394,-1.62091677697361
"p_4a5786612a9365cd","no","no",0.025,"1","Stimuli/Stimuli_Grayscaled/Tools/LawnMower_grayscaled_1.png","Tools",1,0.9568,"yes",38,32,"facebook","aphantasia_facebook","Stimuli/Stimuli_Grayscaled/Tools/LawnMower_grayscaled_1.png","aphant","unmasked","1",-3.68887945411394,-1.62091677697361
"p_4a5786612a9365cd","no","yes",0.075,"1","Stimuli/Stimuli_Grayscaled/Tools/LeafBlower_grayscaled_1.png","Tools",1,0.4902,"yes",38,32,"facebook","aphantasia_facebook","Stimuli/Stimuli_Grayscaled/Tools/LeafBlower_grayscaled_1.png","aphant","masked","1",-2.59026716544583,0.170658663338346
"p_4a5786612a9365cd","no","no",0.05,"1","Stimuli/Stimuli_Grayscaled/Clothing/SnowBoots_grayscaled_1.png","Clothing",1,0.3844,"yes",38,32,"facebook","aphantasia_facebook","Stimuli/Stimuli_Grayscaled/Clothing/SnowBoots_grayscaled_1.png","aphant","unmasked","1",-2.99573227355399,-0.490558525912911
"p_4a5786612a9365cd","no","yes",0.1,"1","Stimuli/Stimuli_Grayscaled/Clothing/Belt_grayscaled_1.png","Clothing",1,0.4686,"yes",38,32,"facebook","aphantasia_facebook","Stimuli/Stimuli_Grayscaled/Clothing/Belt_grayscaled_1.png","aphant","masked","1",-2.30258509299405,0.639799725147786
"p_4a5786612a9365cd","no","yes",0.05,"1","Stimuli/Stimuli_Grayscaled/Food/Eggplant_grayscaled_1.png","Food",1,0.627,"yes",38,32,"facebook","aphantasia_facebook","Stimuli/Stimuli_Grayscaled/Food/Eggplant_grayscaled_1.png","aphant","masked","1",-2.99573227355399,-0.490558525912911
"p_4a5786612a9365cd","no","no",0.05,"1","Stimuli/Stimuli_Grayscaled/Food/Pancake_grayscaled_1.png","Food",1,0.8436,"yes",38,32,"facebook","aphantasia_facebook","Stimuli/Stimuli_Grayscaled/Food/Pancake_grayscaled_1.png","aphant","unmasked","1",-2.99573227355399,-0.490558525912911
"p_4a5786612a9365cd","no","yes",0.15,"1","Stimuli/Stimuli_Grayscaled/Toys/PelletDrumRattle_grayscaled_1.png","Toys",0,1.2971,"yes",38,32,"facebook","aphantasia_facebook","Stimuli/Stimuli_Grayscaled/Toys/PelletDrumRattle_grayscaled_1.png","aphant","masked","1",-1.89711998488588,1.30101691439904
"p_4a5786612a9365cd","no","no",0.025,"1","Stimuli/Stimuli_Grayscaled/Food/Pie_grayscaled_1.png","Food",1,0.4684,"yes",38,32,"facebook","aphantasia_facebook","Stimuli/Stimuli_Grayscaled/Food/Pie_grayscaled_1.png","aphant","unmasked","1",-3.68887945411394,-1.62091677697361
"p_4a5786612a9365cd","no","no",0.1,"1","Stimuli/Stimuli_Grayscaled/Toys/StackingLoops_grayscaled_1.png","Toys",1,0.5841,"yes",38,32,"facebook","aphantasia_facebook","Stimuli/Stimuli_Grayscaled/Toys/StackingLoops_grayscaled_1.png","aphant","unmasked","1",-2.30258509299405,0.639799725147786
"p_4a5786612a9365cd","no","yes",0.075,"1","Stimuli/Stimuli_Grayscaled/Toys/Pinata_grayscaled_1.png","Toys",1,0.8107,"yes",38,32,"facebook","aphantasia_facebook","Stimuli/Stimuli_Grayscaled/Toys/Pinata_grayscaled_1.png","aphant","masked","1",-2.59026716544583,0.170658663338346
"p_4a5786612a9365cd","no","yes",0.15,"1","Stimuli/Stimuli_Grayscaled/Food/Orange_grayscaled_1.png","Food",1,0.6287,"yes",38,32,"facebook","aphantasia_facebook","Stimuli/Stimuli_Grayscaled/Food/Orange_grayscaled_1.png","aphant","masked","1",-1.89711998488588,1.30101691439904
"p_4a5786612a9365cd","no","yes",0.025,"1","Stimuli/Stimuli_Grayscaled/Tools/PaintBrush_grayscaled_1.png","Tools",1,1.4341,"yes",38,32,"facebook","aphantasia_facebook","Stimuli/Stimuli_Grayscaled/Tools/PaintBrush_grayscaled_1.png","aphant","masked","1",-3.68887945411394,-1.62091677697361
"p_4a5786612a9365cd","no","yes",0.075,"1","Stimuli/Stimuli_Grayscaled/Food/Pizza_grayscaled_1.png","Food",1,0.7016,"yes",38,32,"facebook","aphantasia_facebook","Stimuli/Stimuli_Grayscaled/Food/Pizza_grayscaled_1.png","aphant","masked","1",-2.59026716544583,0.170658663338346
"p_4a5786612a9365cd","no","yes",0.05,"1","Stimuli/Stimuli_Grayscaled/Clothing/FlipFlop_grayscaled_1.png","Clothing",1,0.6514,"yes",38,32,"facebook","aphantasia_facebook","Stimuli/Stimuli_Grayscaled/Clothing/FlipFlop_grayscaled_1.png","aphant","masked","1",-2.99573227355399,-0.490558525912911
"p_4a5786612a9365cd","no","yes",0.075,"1","Stimuli/Stimuli_Grayscaled/Clothing/Coat_grayscaled_1.png","Clothing",1,0.4998,"yes",38,32,"facebook","aphantasia_facebook","Stimuli/Stimuli_Grayscaled/Clothing/Coat_grayscaled_1.png","aphant","masked","1",-2.59026716544583,0.170658663338346
"p_091e5aae59c464fa","no","no",0.075,"2","Stimuli/Stimuli_Grayscaled/Food/Biscuit_grayscaled_2.png","Food",1,1.4273,"yes",38,32,"facebook","aphantasia_facebook","Stimuli/Stimuli_Grayscaled/Food/Biscuit_grayscaled_2.png","aphant","unmasked","2",-2.59026716544583,0.170658663338346
"p_091e5aae59c464fa","no","no",0.025,"2","Stimuli/Stimuli_Grayscaled/Toys/Rattle_grayscaled_2.png","Toys",0,1.6781,"yes",38,32,"facebook","aphantasia_facebook","Stimuli/Stimuli_Grayscaled/Toys/Rattle_grayscaled_2.png","aphant","unmasked","2",-3.68887945411394,-1.62091677697361
"p_091e5aae59c464fa","no","no",0.1,"2","Stimuli/Stimuli_Grayscaled/Toys/Mobile_grayscaled_2.png","Toys",1,1.9277,"yes",38,32,"facebook","aphantasia_facebook","Stimuli/Stimuli_Grayscaled/Toys/Mobile_grayscaled_2.png","aphant","unmasked","2",-2.30258509299405,0.639799725147786
"p_091e5aae59c464fa","no","yes",0.15,"2","Stimuli/Stimuli_Grayscaled/Food/Eggplant_grayscaled_2.png","Food",1,0.3896,"yes",38,32,"facebook","aphantasia_facebook","Stimuli/Stimuli_Grayscaled/Food/Eggplant_grayscaled_2.png","aphant","masked","2",-1.89711998488588,1.30101691439904
"p_091e5aae59c464fa","no","yes",0.15,"2","Stimuli/Stimuli_Grayscaled/Clothing/Saree_grayscaled_2.png","Clothing",1,0.4552,"yes",38,32,"facebook","aphantasia_facebook","Stimuli/Stimuli_Grayscaled/Clothing/Saree_grayscaled_2.png","aphant","masked","2",-1.89711998488588,1.30101691439904
"p_091e5aae59c464fa","no","yes",0.1,"2","Stimuli/Stimuli_Grayscaled/Toys/SandToy_grayscaled_2.png","Toys",0,0.4209,"yes",38,32,"facebook","aphantasia_facebook","Stimuli/Stimuli_Grayscaled/Toys/SandToy_grayscaled_2.png","aphant","masked","2",-2.30258509299405,0.639799725147786
"p_091e5aae59c464fa","no","yes",0.075,"2","Stimuli/Stimuli_Grayscaled/Toys/DollHouse_grayscaled_2.png","Toys",1,0.4222,"yes",38,32,"facebook","aphantasia_facebook","Stimuli/Stimuli_Grayscaled/Toys/DollHouse_grayscaled_2.png","aphant","masked","2",-2.59026716544583,0.170658663338346
"p_091e5aae59c464fa","no","no",0.025,"2","Stimuli/Stimuli_Grayscaled/Food/Beetroot_grayscaled_2.png","Food",1,0.8134,"yes",38,32,"facebook","aphantasia_facebook","Stimuli/Stimuli_Grayscaled/Food/Beetroot_grayscaled_2.png","aphant","unmasked","2",-3.68887945411394,-1.62091677697361
"p_091e5aae59c464fa","no","yes",0.05,"2","Stimuli/Stimuli_Grayscaled/Toys/BaseballBat_grayscaled_2.png","Toys",1,0.407,"yes",38,32,"facebook","aphantasia_facebook","Stimuli/Stimuli_Grayscaled/Toys/BaseballBat_grayscaled_2.png","aphant","masked","2",-2.99573227355399,-0.490558525912911
"p_091e5aae59c464fa","no","yes",0.025,"2","Stimuli/Stimuli_Grayscaled/Clothing/Hoodie_grayscaled_2.png","Clothing",1,0.3057,"yes",38,32,"facebook","aphantasia_facebook","Stimuli/Stimuli_Grayscaled/Clothing/Hoodie_grayscaled_2.png","aphant","masked","2",-3.68887945411394,-1.62091677697361
"p_091e5aae59c464fa","no","no",0.15,"2","Stimuli/Stimuli_Grayscaled/Food/Chocolate_grayscaled_2.png","Food",1,0.2747,"yes",38,32,"facebook","aphantasia_facebook","Stimuli/Stimuli_Grayscaled/Food/Chocolate_grayscaled_2.png","aphant","unmasked","2",-1.89711998488588,1.30101691439904
"p_091e5aae59c464fa","no","no",0.025,"2","Stimuli/Stimuli_Grayscaled/Clothing/Shirt_grayscaled_2.png","Clothing",1,0.3875,"yes",38,32,"facebook","aphantasia_facebook","Stimuli/Stimuli_Grayscaled/Clothing/Shirt_grayscaled_2.png","aphant","unmasked","2",-3.68887945411394,-1.62091677697361
"p_091e5aae59c464fa","no","no",0.075,"2","Stimuli/Stimuli_Grayscaled/Tools/Hammer_grayscaled_2.png","Tools",1,0.3447,"yes",38,32,"facebook","aphantasia_facebook","Stimuli/Stimuli_Grayscaled/Tools/Hammer_grayscaled_2.png","aphant","unmasked","2",-2.59026716544583,0.170658663338346
"p_091e5aae59c464fa","no","no",0.05,"2","Stimuli/Stimuli_Grayscaled/Toys/EtchASketch_grayscaled_2.png","Toys",1,0.4466,"yes",38,32,"facebook","aphantasia_facebook","Stimuli/Stimuli_Grayscaled/Toys/EtchASketch_grayscaled_2.png","aphant","unmasked","2",-2.99573227355399,-0.490558525912911
"p_091e5aae59c464fa","no","no",0.15,"2","Stimuli/Stimuli_Grayscaled/Tools/HandTruck_grayscaled_2.png","Tools",0,1.006,"yes",38,32,"facebook","aphantasia_facebook","Stimuli/Stimuli_Grayscaled/Tools/HandTruck_grayscaled_2.png","aphant","unmasked","2",-1.89711998488588,1.30101691439904
"p_091e5aae59c464fa","no","no",0.15,"2","Stimuli/Stimuli_Grayscaled/Toys/PelletDrumRattle_grayscaled_2.png","Toys",0,1.9266,"yes",38,32,"facebook","aphantasia_facebook","Stimuli/Stimuli_Grayscaled/Toys/PelletDrumRattle_grayscaled_2.png","aphant","unmasked","2",-1.89711998488588,1.30101691439904
"p_091e5aae59c464fa","no","no",0.05,"2","Stimuli/Stimuli_Grayscaled/Food/Pear_grayscaled_2.png","Food",1,0.4295,"yes",38,32,"facebook","aphantasia_facebook","Stimuli/Stimuli_Grayscaled/Food/Pear_grayscaled_2.png","aphant","unmasked","2",-2.99573227355399,-0.490558525912911
"p_091e5aae59c464fa","no","yes",0.1,"2","Stimuli/Stimuli_Grayscaled/Food/GreenPepper_grayscaled_2.png","Food",1,0.4583,"yes",38,32,"facebook","aphantasia_facebook","Stimuli/Stimuli_Grayscaled/Food/GreenPepper_grayscaled_2.png","aphant","masked","2",-2.30258509299405,0.639799725147786
"p_091e5aae59c464fa","no","no",0.025,"2","Stimuli/Stimuli_Grayscaled/Tools/BlacksmithTongs_grayscaled_2.png","Tools",1,0.4973,"yes",38,32,"facebook","aphantasia_facebook","Stimuli/Stimuli_Grayscaled/Tools/BlacksmithTongs_grayscaled_2.png","aphant","unmasked","2",-3.68887945411394,-1.62091677697361
"p_091e5aae59c464fa","no","yes",0.15,"2","Stimuli/Stimuli_Grayscaled/Tools/Ratchet_grayscaled_2.png","Tools",1,0.3708,"yes",38,32,"facebook","aphantasia_facebook","Stimuli/Stimuli_Grayscaled/Tools/Ratchet_grayscaled_2.png","aphant","masked","2",-1.89711998488588,1.30101691439904
"p_091e5aae59c464fa","no","no",0.05,"2","Stimuli/Stimuli_Grayscaled/Tools/HandRake_grayscaled_2.png","Tools",1,1.039,"yes",38,32,"facebook","aphantasia_facebook","Stimuli/Stimuli_Grayscaled/Tools/HandRake_grayscaled_2.png","aphant","unmasked","2",-2.99573227355399,-0.490558525912911
"p_091e5aae59c464fa","no","yes",0.05,"2","Stimuli/Stimuli_Grayscaled/Tools/PowerDrill_grayscaled_2.png","Tools",1,0.5047,"yes",38,32,"facebook","aphantasia_facebook","Stimuli/Stimuli_Grayscaled/Tools/PowerDrill_grayscaled_2.png","aphant","masked","2",-2.99573227355399,-0.490558525912911
"p_091e5aae59c464fa","no","no",0.1,"2","Stimuli/Stimuli_Grayscaled/Tools/PaintRoller_grayscaled_2.png","Tools",1,0.4555,"yes",38,32,"facebook","aphantasia_facebook","Stimuli/Stimuli_Grayscaled/Tools/PaintRoller_grayscaled_2.png","aphant","unmasked","2",-2.30258509299405,0.639799725147786
"p_091e5aae59c464fa","no","no",0.1,"2","Stimuli/Stimuli_Grayscaled/Food/Kiwi_grayscaled_2.png","Food",1,0.4876,"yes",38,32,"facebook","aphantasia_facebook","Stimuli/Stimuli_Grayscaled/Food/Kiwi_grayscaled_2.png","aphant","unmasked","2",-2.30258509299405,0.639799725147786
"p_091e5aae59c464fa","no","yes",0.025,"2","Stimuli/Stimuli_Grayscaled/Food/Pie_grayscaled_2.png","Food",1,0.6155,"yes",38,32,"facebook","aphantasia_facebook","Stimuli/Stimuli_Grayscaled/Food/Pie_grayscaled_2.png","aphant","masked","2",-3.68887945411394,-1.62091677697361
"p_091e5aae59c464fa","no","yes",0.075,"2","Stimuli/Stimuli_Grayscaled/Tools/PaintTray_grayscaled_2.png","Tools",1,0.5712,"yes",38,32,"facebook","aphantasia_facebook","Stimuli/Stimuli_Grayscaled/Tools/PaintTray_grayscaled_2.png","aphant","masked","2",-2.59026716544583,0.170658663338346
"p_091e5aae59c464fa","no","yes",0.075,"2","Stimuli/Stimuli_Grayscaled/Food/Cabbage_grayscaled_2.png","Food",1,0.4218,"yes",38,32,"facebook","aphantasia_facebook","Stimuli/Stimuli_Grayscaled/Food/Cabbage_grayscaled_2.png","aphant","masked","2",-2.59026716544583,0.170658663338346
"p_091e5aae59c464fa","no","no",0.15,"2","Stimuli/Stimuli_Grayscaled/Clothing/Romper_grayscaled_2.png","Clothing",1,0.3749,"yes",38,32,"facebook","aphantasia_facebook","Stimuli/Stimuli_Grayscaled/Clothing/Romper_grayscaled_2.png","aphant","unmasked","2",-1.89711998488588,1.30101691439904
"p_091e5aae59c464fa","no","no",0.075,"2","Stimuli/Stimuli_Grayscaled/Clothing/Socks_grayscaled_2.png","Clothing",1,0.4215,"yes",38,32,"facebook","aphantasia_facebook","Stimuli/Stimuli_Grayscaled/Clothing/Socks_grayscaled_2.png","aphant","unmasked","2",-2.59026716544583,0.170658663338346
"p_091e5aae59c464fa","no","yes",0.075,"2","Stimuli/Stimuli_Grayscaled/Clothing/Boxers_grayscaled_2.png","Clothing",1,0.4063,"yes",38,32,"facebook","aphantasia_facebook","Stimuli/Stimuli_Grayscaled/Clothing/Boxers_grayscaled_2.png","aphant","masked","2",-2.59026716544583,0.170658663338346
"p_091e5aae59c464fa","no","no",0.075,"2","Stimuli/Stimuli_Grayscaled/Toys/StuffedHippo_grayscaled_2.png","Toys",1,0.4383,"yes",38,32,"facebook","aphantasia_facebook","Stimuli/Stimuli_Grayscaled/Toys/StuffedHippo_grayscaled_2.png","aphant","unmasked","2",-2.59026716544583,0.170658663338346
"p_091e5aae59c464fa","no","yes",0.025,"2","Stimuli/Stimuli_Grayscaled/Tools/Screw_grayscaled_2.png","Tools",1,0.6943,"yes",38,32,"facebook","aphantasia_facebook","Stimuli/Stimuli_Grayscaled/Tools/Screw_grayscaled_2.png","aphant","masked","2",-3.68887945411394,-1.62091677697361
"p_091e5aae59c464fa","no","yes",0.05,"2","Stimuli/Stimuli_Grayscaled/Clothing/Slippers_grayscaled_2.png","Clothing",1,0.471,"yes",38,32,"facebook","aphantasia_facebook","Stimuli/Stimuli_Grayscaled/Clothing/Slippers_grayscaled_2.png","aphant","masked","2",-2.99573227355399,-0.490558525912911
"p_091e5aae59c464fa","no","yes",0.025,"2","Stimuli/Stimuli_Grayscaled/Toys/Float_grayscaled_2.png","Toys",1,0.5042,"yes",38,32,"facebook","aphantasia_facebook","Stimuli/Stimuli_Grayscaled/Toys/Float_grayscaled_2.png","aphant","masked","2",-3.68887945411394,-1.62091677697361
"p_091e5aae59c464fa","no","yes",0.1,"2","Stimuli/Stimuli_Grayscaled/Clothing/Overalls_grayscaled_2.png","Clothing",1,0.531,"yes",38,32,"facebook","aphantasia_facebook","Stimuli/Stimuli_Grayscaled/Clothing/Overalls_grayscaled_2.png","aphant","masked","2",-2.30258509299405,0.639799725147786
"p_091e5aae59c464fa","no","yes",0.1,"2","Stimuli/Stimuli_Grayscaled/Tools/Axe_grayscaled_2.png","Tools",1,0.3918,"yes",38,32,"facebook","aphantasia_facebook","Stimuli/Stimuli_Grayscaled/Tools/Axe_grayscaled_2.png","aphant","masked","2",-2.30258509299405,0.639799725147786
"p_091e5aae59c464fa","no","no",0.1,"2","Stimuli/Stimuli_Grayscaled/Clothing/Gumboots_grayscaled_2.png","Clothing",1,0.4052,"yes",38,32,"facebook","aphantasia_facebook","Stimuli/Stimuli_Grayscaled/Clothing/Gumboots_grayscaled_2.png","aphant","unmasked","2",-2.30258509299405,0.639799725147786
"p_091e5aae59c464fa","no","yes",0.05,"2","Stimuli/Stimuli_Grayscaled/Food/Bread_grayscaled_2.png","Food",1,0.4301,"yes",38,32,"facebook","aphantasia_facebook","Stimuli/Stimuli_Grayscaled/Food/Bread_grayscaled_2.png","aphant","masked","2",-2.99573227355399,-0.490558525912911
"p_091e5aae59c464fa","no","no",0.05,"2","Stimuli/Stimuli_Grayscaled/Clothing/ActivewearShorts_grayscaled_2.png","Clothing",1,0.3539,"yes",38,32,"facebook","aphantasia_facebook","Stimuli/Stimuli_Grayscaled/Clothing/ActivewearShorts_grayscaled_2.png","aphant","unmasked","2",-2.99573227355399,-0.490558525912911
"p_091e5aae59c464fa","no","yes",0.15,"2","Stimuli/Stimuli_Grayscaled/Toys/StuffedOwl_grayscaled_2.png","Toys",1,0.2452,"yes",38,32,"facebook","aphantasia_facebook","Stimuli/Stimuli_Grayscaled/Toys/StuffedOwl_grayscaled_2.png","aphant","masked","2",-1.89711998488588,1.30101691439904
"p_091e5aae59c464fa","no","no",0.075,"1","Stimuli/Stimuli_Grayscaled/Food/Onion_grayscaled_1.png","Food",1,0.8053,"yes",38,32,"facebook","aphantasia_facebook","Stimuli/Stimuli_Grayscaled/Food/Onion_grayscaled_1.png","aphant","unmasked","1",-2.59026716544583,0.170658663338346
"p_091e5aae59c464fa","no","yes",0.05,"1","Stimuli/Stimuli_Grayscaled/Clothing/Slippers_grayscaled_1.png","Clothing",1,0.3761,"yes",38,32,"facebook","aphantasia_facebook","Stimuli/Stimuli_Grayscaled/Clothing/Slippers_grayscaled_1.png","aphant","masked","1",-2.99573227355399,-0.490558525912911
"p_091e5aae59c464fa","no","yes",0.075,"1","Stimuli/Stimuli_Grayscaled/Toys/PelletDrumRattle_grayscaled_1.png","Toys",1,0.4284,"yes",38,32,"facebook","aphantasia_facebook","Stimuli/Stimuli_Grayscaled/Toys/PelletDrumRattle_grayscaled_1.png","aphant","masked","1",-2.59026716544583,0.170658663338346
"p_091e5aae59c464fa","no","no",0.075,"1","Stimuli/Stimuli_Grayscaled/Tools/Axe_grayscaled_1.png","Tools",1,0.0293,"yes",38,32,"facebook","aphantasia_facebook","Stimuli/Stimuli_Grayscaled/Tools/Axe_grayscaled_1.png","aphant","unmasked","1",-2.59026716544583,0.170658663338346
"p_091e5aae59c464fa","no","yes",0.075,"1","Stimuli/Stimuli_Grayscaled/Tools/PaperCutter_grayscaled_1.png","Tools",0,0.5741,"yes",38,32,"facebook","aphantasia_facebook","Stimuli/Stimuli_Grayscaled/Tools/PaperCutter_grayscaled_1.png","aphant","masked","1",-2.59026716544583,0.170658663338346
"p_091e5aae59c464fa","no","no",0.05,"1","Stimuli/Stimuli_Grayscaled/Food/Donut_grayscaled_1.png","Food",1,0.514,"yes",38,32,"facebook","aphantasia_facebook","Stimuli/Stimuli_Grayscaled/Food/Donut_grayscaled_1.png","aphant","unmasked","1",-2.99573227355399,-0.490558525912911
"p_091e5aae59c464fa","no","no",0.025,"1","Stimuli/Stimuli_Grayscaled/Tools/SafetyGlasses_grayscaled_1.png","Tools",0,1.0728,"yes",38,32,"facebook","aphantasia_facebook","Stimuli/Stimuli_Grayscaled/Tools/SafetyGlasses_grayscaled_1.png","aphant","unmasked","1",-3.68887945411394,-1.62091677697361
"p_091e5aae59c464fa","no","no",0.075,"1","Stimuli/Stimuli_Grayscaled/Toys/NerfGun_grayscaled_1.png","Toys",1,0.4428,"yes",38,32,"facebook","aphantasia_facebook","Stimuli/Stimuli_Grayscaled/Toys/NerfGun_grayscaled_1.png","aphant","unmasked","1",-2.59026716544583,0.170658663338346
"p_091e5aae59c464fa","no","yes",0.15,"1","Stimuli/Stimuli_Grayscaled/Tools/Blowtorch_grayscaled_1.png","Tools",0,0.5825,"yes",38,32,"facebook","aphantasia_facebook","Stimuli/Stimuli_Grayscaled/Tools/Blowtorch_grayscaled_1.png","aphant","masked","1",-1.89711998488588,1.30101691439904
"p_091e5aae59c464fa","no","no",0.025,"1","Stimuli/Stimuli_Grayscaled/Food/Lemon_grayscaled_1.png","Food",1,0.4561,"yes",38,32,"facebook","aphantasia_facebook","Stimuli/Stimuli_Grayscaled/Food/Lemon_grayscaled_1.png","aphant","unmasked","1",-3.68887945411394,-1.62091677697361
"p_091e5aae59c464fa","no","yes",0.025,"1","Stimuli/Stimuli_Grayscaled/Tools/PipeWrench_grayscaled_1.png","Tools",1,0.6583,"yes",38,32,"facebook","aphantasia_facebook","Stimuli/Stimuli_Grayscaled/Tools/PipeWrench_grayscaled_1.png","aphant","masked","1",-3.68887945411394,-1.62091677697361
"p_091e5aae59c464fa","no","yes",0.075,"1","Stimuli/Stimuli_Grayscaled/Food/Cookie_grayscaled_1.png","Food",1,0.5774,"yes",38,32,"facebook","aphantasia_facebook","Stimuli/Stimuli_Grayscaled/Food/Cookie_grayscaled_1.png","aphant","masked","1",-2.59026716544583,0.170658663338346
"p_091e5aae59c464fa","no","no",0.15,"1","Stimuli/Stimuli_Grayscaled/Toys/Rattle_grayscaled_1.png","Toys",0,0.4718,"yes",38,32,"facebook","aphantasia_facebook","Stimuli/Stimuli_Grayscaled/Toys/Rattle_grayscaled_1.png","aphant","unmasked","1",-1.89711998488588,1.30101691439904
"p_091e5aae59c464fa","no","yes",0.15,"1","Stimuli/Stimuli_Grayscaled/Toys/Float_grayscaled_1.png","Toys",1,0.3893,"yes",38,32,"facebook","aphantasia_facebook","Stimuli/Stimuli_Grayscaled/Toys/Float_grayscaled_1.png","aphant","masked","1",-1.89711998488588,1.30101691439904
"p_091e5aae59c464fa","no","no",0.075,"1","Stimuli/Stimuli_Grayscaled/Clothing/Boxers_grayscaled_1.png","Clothing",1,0.4613,"yes",38,32,"facebook","aphantasia_facebook","Stimuli/Stimuli_Grayscaled/Clothing/Boxers_grayscaled_1.png","aphant","unmasked","1",-2.59026716544583,0.170658663338346
"p_091e5aae59c464fa","no","yes",0.1,"1","Stimuli/Stimuli_Grayscaled/Tools/JackHammer_grayscaled_1.png","Tools",1,1.5544,"yes",38,32,"facebook","aphantasia_facebook","Stimuli/Stimuli_Grayscaled/Tools/JackHammer_grayscaled_1.png","aphant","masked","1",-2.30258509299405,0.639799725147786
"p_091e5aae59c464fa","no","yes",0.05,"1","Stimuli/Stimuli_Grayscaled/Tools/Grinder_grayscaled_1.png","Tools",1,0.5935,"yes",38,32,"facebook","aphantasia_facebook","Stimuli/Stimuli_Grayscaled/Tools/Grinder_grayscaled_1.png","aphant","masked","1",-2.99573227355399,-0.490558525912911
"p_091e5aae59c464fa","no","no",0.1,"1","Stimuli/Stimuli_Grayscaled/Clothing/FlipFlop_grayscaled_1.png","Clothing",1,0.4876,"yes",38,32,"facebook","aphantasia_facebook","Stimuli/Stimuli_Grayscaled/Clothing/FlipFlop_grayscaled_1.png","aphant","unmasked","1",-2.30258509299405,0.639799725147786
"p_091e5aae59c464fa","no","no",0.1,"1","Stimuli/Stimuli_Grayscaled/Food/Pear_grayscaled_1.png","Food",1,0.4887,"yes",38,32,"facebook","aphantasia_facebook","Stimuli/Stimuli_Grayscaled/Food/Pear_grayscaled_1.png","aphant","unmasked","1",-2.30258509299405,0.639799725147786
"p_091e5aae59c464fa","no","no",0.1,"1","Stimuli/Stimuli_Grayscaled/Tools/Pipe_grayscaled_1.png","Tools",1,0.4379,"yes",38,32,"facebook","aphantasia_facebook","Stimuli/Stimuli_Grayscaled/Tools/Pipe_grayscaled_1.png","aphant","unmasked","1",-2.30258509299405,0.639799725147786
"p_091e5aae59c464fa","no","yes",0.025,"1","Stimuli/Stimuli_Grayscaled/Toys/StuffedBear_grayscaled_1.png","Toys",1,0.4046,"yes",38,32,"facebook","aphantasia_facebook","Stimuli/Stimuli_Grayscaled/Toys/StuffedBear_grayscaled_1.png","aphant","masked","1",-3.68887945411394,-1.62091677697361
"p_091e5aae59c464fa","no","yes",0.15,"1","Stimuli/Stimuli_Grayscaled/Food/Chocolate_grayscaled_1.png","Food",1,0.3884,"yes",38,32,"facebook","aphantasia_facebook","Stimuli/Stimuli_Grayscaled/Food/Chocolate_grayscaled_1.png","aphant","masked","1",-1.89711998488588,1.30101691439904
"p_091e5aae59c464fa","no","no",0.05,"1","Stimuli/Stimuli_Grayscaled/Tools/ScrewDriver_grayscaled_1.png","Tools",1,0.5047,"yes",38,32,"facebook","aphantasia_facebook","Stimuli/Stimuli_Grayscaled/Tools/ScrewDriver_grayscaled_1.png","aphant","unmasked","1",-2.99573227355399,-0.490558525912911
"p_091e5aae59c464fa","no","yes",0.15,"1","Stimuli/Stimuli_Grayscaled/Clothing/Bikini_grayscaled_1.png","Clothing",1,0.1229,"yes",38,32,"facebook","aphantasia_facebook","Stimuli/Stimuli_Grayscaled/Clothing/Bikini_grayscaled_1.png","aphant","masked","1",-1.89711998488588,1.30101691439904
"p_091e5aae59c464fa","no","no",0.05,"1","Stimuli/Stimuli_Grayscaled/Toys/Barbie_grayscaled_1.png","Toys",0,0.3878,"yes",38,32,"facebook","aphantasia_facebook","Stimuli/Stimuli_Grayscaled/Toys/Barbie_grayscaled_1.png","aphant","unmasked","1",-2.99573227355399,-0.490558525912911
"p_091e5aae59c464fa","no","yes",0.1,"1","Stimuli/Stimuli_Grayscaled/Toys/Ball_grayscaled_1.png","Toys",1,0.5722,"yes",38,32,"facebook","aphantasia_facebook","Stimuli/Stimuli_Grayscaled/Toys/Ball_grayscaled_1.png","aphant","masked","1",-2.30258509299405,0.639799725147786
"p_091e5aae59c464fa","no","no",0.15,"1","Stimuli/Stimuli_Grayscaled/Food/Beetroot_grayscaled_1.png","Food",1,0.693,"yes",38,32,"facebook","aphantasia_facebook","Stimuli/Stimuli_Grayscaled/Food/Beetroot_grayscaled_1.png","aphant","unmasked","1",-1.89711998488588,1.30101691439904
"p_091e5aae59c464fa","no","no",0.15,"1","Stimuli/Stimuli_Grayscaled/Clothing/Overalls_grayscaled_1.png","Clothing",1,0.3968,"yes",38,32,"facebook","aphantasia_facebook","Stimuli/Stimuli_Grayscaled/Clothing/Overalls_grayscaled_1.png","aphant","unmasked","1",-1.89711998488588,1.30101691439904
"p_091e5aae59c464fa","no","yes",0.1,"1","Stimuli/Stimuli_Grayscaled/Food/Burger_grayscaled_1.png","Food",1,0.3384,"yes",38,32,"facebook","aphantasia_facebook","Stimuli/Stimuli_Grayscaled/Food/Burger_grayscaled_1.png","aphant","masked","1",-2.30258509299405,0.639799725147786
"p_091e5aae59c464fa","no","yes",0.05,"1","Stimuli/Stimuli_Grayscaled/Toys/DollHouse_grayscaled_1.png","Toys",1,0.4376,"yes",38,32,"facebook","aphantasia_facebook","Stimuli/Stimuli_Grayscaled/Toys/DollHouse_grayscaled_1.png","aphant","masked","1",-2.99573227355399,-0.490558525912911
"p_091e5aae59c464fa","no","no",0.1,"1","Stimuli/Stimuli_Grayscaled/Toys/StuffedRabbit_grayscaled_1.png","Toys",1,0.3986,"yes",38,32,"facebook","aphantasia_facebook","Stimuli/Stimuli_Grayscaled/Toys/StuffedRabbit_grayscaled_1.png","aphant","unmasked","1",-2.30258509299405,0.639799725147786
"p_091e5aae59c464fa","no","yes",0.025,"1","Stimuli/Stimuli_Grayscaled/Clothing/Belt_grayscaled_1.png","Clothing",1,1.506,"yes",38,32,"facebook","aphantasia_facebook","Stimuli/Stimuli_Grayscaled/Clothing/Belt_grayscaled_1.png","aphant","masked","1",-3.68887945411394,-1.62091677697361
"p_091e5aae59c464fa","no","yes",0.025,"1","Stimuli/Stimuli_Grayscaled/Food/HotDog_grayscaled_1.png","Food",1,0.555,"yes",38,32,"facebook","aphantasia_facebook","Stimuli/Stimuli_Grayscaled/Food/HotDog_grayscaled_1.png","aphant","masked","1",-3.68887945411394,-1.62091677697361
"p_091e5aae59c464fa","no","no",0.05,"1","Stimuli/Stimuli_Grayscaled/Clothing/LeatherJacket_grayscaled_1.png","Clothing",1,0.4209,"yes",38,32,"facebook","aphantasia_facebook","Stimuli/Stimuli_Grayscaled/Clothing/LeatherJacket_grayscaled_1.png","aphant","unmasked","1",-2.99573227355399,-0.490558525912911
"p_091e5aae59c464fa","no","no",0.025,"1","Stimuli/Stimuli_Grayscaled/Toys/Blanket_grayscaled_1.png","Toys",1,3.185,"yes",38,32,"facebook","aphantasia_facebook","Stimuli/Stimuli_Grayscaled/Toys/Blanket_grayscaled_1.png","aphant","unmasked","1",-3.68887945411394,-1.62091677697361
"p_091e5aae59c464fa","no","yes",0.075,"1","Stimuli/Stimuli_Grayscaled/Clothing/Panties_grayscaled_1.png","Clothing",1,0.3827,"yes",38,32,"facebook","aphantasia_facebook","Stimuli/Stimuli_Grayscaled/Clothing/Panties_grayscaled_1.png","aphant","masked","1",-2.59026716544583,0.170658663338346
"p_091e5aae59c464fa","no","no",0.025,"1","Stimuli/Stimuli_Grayscaled/Clothing/Gloves_grayscaled_1.png","Clothing",1,0.6935,"yes",38,32,"facebook","aphantasia_facebook","Stimuli/Stimuli_Grayscaled/Clothing/Gloves_grayscaled_1.png","aphant","unmasked","1",-3.68887945411394,-1.62091677697361
"p_091e5aae59c464fa","no","no",0.15,"1","Stimuli/Stimuli_Grayscaled/Tools/BlacksmithTongs_grayscaled_1.png","Tools",1,0.3955,"yes",38,32,"facebook","aphantasia_facebook","Stimuli/Stimuli_Grayscaled/Tools/BlacksmithTongs_grayscaled_1.png","aphant","unmasked","1",-1.89711998488588,1.30101691439904
"p_091e5aae59c464fa","no","yes",0.05,"1","Stimuli/Stimuli_Grayscaled/Food/Biscuit_grayscaled_1.png","Food",1,0.4388,"yes",38,32,"facebook","aphantasia_facebook","Stimuli/Stimuli_Grayscaled/Food/Biscuit_grayscaled_1.png","aphant","masked","1",-2.99573227355399,-0.490558525912911
"p_091e5aae59c464fa","no","yes",0.1,"1","Stimuli/Stimuli_Grayscaled/Clothing/Coat_grayscaled_1.png","Clothing",1,0.3735,"yes",38,32,"facebook","aphantasia_facebook","Stimuli/Stimuli_Grayscaled/Clothing/Coat_grayscaled_1.png","aphant","masked","1",-2.30258509299405,0.639799725147786
"p_041e6a09b1dc61fb","no","yes",0.025,"1","Stimuli/Stimuli_Grayscaled/Toys/PelletDrumRattle_grayscaled_1.png","Toys",1,1.6005,"yes",77,32,"facebook","aphantasia_facebook","Stimuli/Stimuli_Grayscaled/Toys/PelletDrumRattle_grayscaled_1.png","aphant","masked","1",-3.68887945411394,-1.62091677697361
"p_041e6a09b1dc61fb","no","yes",0.05,"1","Stimuli/Stimuli_Grayscaled/Tools/LeafBlower_grayscaled_1.png","Tools",1,1.309,"yes",77,32,"facebook","aphantasia_facebook","Stimuli/Stimuli_Grayscaled/Tools/LeafBlower_grayscaled_1.png","aphant","masked","1",-2.99573227355399,-0.490558525912911
"p_041e6a09b1dc61fb","no","yes",0.1,"1","Stimuli/Stimuli_Grayscaled/Clothing/Boxers_grayscaled_1.png","Clothing",1,0.3356,"yes",77,32,"facebook","aphantasia_facebook","Stimuli/Stimuli_Grayscaled/Clothing/Boxers_grayscaled_1.png","aphant","masked","1",-2.30258509299405,0.639799725147786
"p_041e6a09b1dc61fb","no","no",0.075,"1","Stimuli/Stimuli_Grayscaled/Clothing/Shorts_grayscaled_1.png","Clothing",1,0.7423,"yes",77,32,"facebook","aphantasia_facebook","Stimuli/Stimuli_Grayscaled/Clothing/Shorts_grayscaled_1.png","aphant","unmasked","1",-2.59026716544583,0.170658663338346
"p_041e6a09b1dc61fb","no","yes",0.1,"1","Stimuli/Stimuli_Grayscaled/Tools/Pliers_grayscaled_1.png","Tools",1,0.5342,"yes",77,32,"facebook","aphantasia_facebook","Stimuli/Stimuli_Grayscaled/Tools/Pliers_grayscaled_1.png","aphant","masked","1",-2.30258509299405,0.639799725147786
"p_041e6a09b1dc61fb","no","yes",0.1,"1","Stimuli/Stimuli_Grayscaled/Food/Fries_grayscaled_1.png","Food",1,0.6048,"yes",77,32,"facebook","aphantasia_facebook","Stimuli/Stimuli_Grayscaled/Food/Fries_grayscaled_1.png","aphant","masked","1",-2.30258509299405,0.639799725147786
"p_041e6a09b1dc61fb","no","yes",0.05,"1","Stimuli/Stimuli_Grayscaled/Food/Pear_grayscaled_1.png","Food",1,0.6111,"yes",77,32,"facebook","aphantasia_facebook","Stimuli/Stimuli_Grayscaled/Food/Pear_grayscaled_1.png","aphant","masked","1",-2.99573227355399,-0.490558525912911
"p_041e6a09b1dc61fb","no","no",0.15,"1","Stimuli/Stimuli_Grayscaled/Food/Apple_grayscaled_1.png","Food",0,1.6085,"yes",77,32,"facebook","aphantasia_facebook","Stimuli/Stimuli_Grayscaled/Food/Apple_grayscaled_1.png","aphant","unmasked","1",-1.89711998488588,1.30101691439904
"p_041e6a09b1dc61fb","no","no",0.075,"1","Stimuli/Stimuli_Grayscaled/Food/Cupcake_grayscaled_1.png","Food",1,0.8177,"yes",77,32,"facebook","aphantasia_facebook","Stimuli/Stimuli_Grayscaled/Food/Cupcake_grayscaled_1.png","aphant","unmasked","1",-2.59026716544583,0.170658663338346
"p_041e6a09b1dc61fb","no","no",0.025,"1","Stimuli/Stimuli_Grayscaled/Tools/GardenHose_grayscaled_1.png","Tools",1,1.1772,"yes",77,32,"facebook","aphantasia_facebook","Stimuli/Stimuli_Grayscaled/Tools/GardenHose_grayscaled_1.png","aphant","unmasked","1",-3.68887945411394,-1.62091677697361
"p_041e6a09b1dc61fb","no","no",0.1,"1","Stimuli/Stimuli_Grayscaled/Food/Burger_grayscaled_1.png","Food",1,1.2123,"yes",77,32,"facebook","aphantasia_facebook","Stimuli/Stimuli_Grayscaled/Food/Burger_grayscaled_1.png","aphant","unmasked","1",-2.30258509299405,0.639799725147786
"p_041e6a09b1dc61fb","no","yes",0.15,"1","Stimuli/Stimuli_Grayscaled/Clothing/Overalls_grayscaled_1.png","Clothing",1,0.5917,"yes",77,32,"facebook","aphantasia_facebook","Stimuli/Stimuli_Grayscaled/Clothing/Overalls_grayscaled_1.png","aphant","masked","1",-1.89711998488588,1.30101691439904
"p_041e6a09b1dc61fb","no","no",0.15,"1","Stimuli/Stimuli_Grayscaled/Clothing/Sweatpants_grayscaled_1.png","Clothing",1,0.608,"yes",77,32,"facebook","aphantasia_facebook","Stimuli/Stimuli_Grayscaled/Clothing/Sweatpants_grayscaled_1.png","aphant","unmasked","1",-1.89711998488588,1.30101691439904
"p_041e6a09b1dc61fb","no","no",0.1,"1","Stimuli/Stimuli_Grayscaled/Tools/BlacksmithTongs_grayscaled_1.png","Tools",1,0.8207,"yes",77,32,"facebook","aphantasia_facebook","Stimuli/Stimuli_Grayscaled/Tools/BlacksmithTongs_grayscaled_1.png","aphant","unmasked","1",-2.30258509299405,0.639799725147786
"p_041e6a09b1dc61fb","no","yes",0.025,"1","Stimuli/Stimuli_Grayscaled/Clothing/SportsBra_grayscaled_1.png","Clothing",0,1.051,"yes",77,32,"facebook","aphantasia_facebook","Stimuli/Stimuli_Grayscaled/Clothing/SportsBra_grayscaled_1.png","aphant","masked","1",-3.68887945411394,-1.62091677697361
"p_041e6a09b1dc61fb","no","yes",0.15,"1","Stimuli/Stimuli_Grayscaled/Food/Carrot_grayscaled_1.png","Food",1,1.3778,"yes",77,32,"facebook","aphantasia_facebook","Stimuli/Stimuli_Grayscaled/Food/Carrot_grayscaled_1.png","aphant","masked","1",-1.89711998488588,1.30101691439904
"p_041e6a09b1dc61fb","no","yes",0.025,"1","Stimuli/Stimuli_Grayscaled/Food/Bread_grayscaled_1.png","Food",1,0.295,"yes",77,32,"facebook","aphantasia_facebook","Stimuli/Stimuli_Grayscaled/Food/Bread_grayscaled_1.png","aphant","masked","1",-3.68887945411394,-1.62091677697361
"p_041e6a09b1dc61fb","no","no",0.15,"1","Stimuli/Stimuli_Grayscaled/Toys/Doll_grayscaled_1.png","Toys",1,1.2834,"yes",77,32,"facebook","aphantasia_facebook","Stimuli/Stimuli_Grayscaled/Toys/Doll_grayscaled_1.png","aphant","unmasked","1",-1.89711998488588,1.30101691439904
"p_041e6a09b1dc61fb","no","no",0.05,"1","Stimuli/Stimuli_Grayscaled/Tools/SafetyGlasses_grayscaled_1.png","Tools",0,5.5737,"yes",77,32,"facebook","aphantasia_facebook","Stimuli/Stimuli_Grayscaled/Tools/SafetyGlasses_grayscaled_1.png","aphant","unmasked","1",-2.99573227355399,-0.490558525912911
"p_041e6a09b1dc61fb","no","no",0.1,"1","Stimuli/Stimuli_Grayscaled/Clothing/Romper_grayscaled_1.png","Clothing",1,1.1866,"yes",77,32,"facebook","aphantasia_facebook","Stimuli/Stimuli_Grayscaled/Clothing/Romper_grayscaled_1.png","aphant","unmasked","1",-2.30258509299405,0.639799725147786
"p_041e6a09b1dc61fb","no","no",0.025,"1","Stimuli/Stimuli_Grayscaled/Toys/StuffedOwl_grayscaled_1.png","Toys",1,0.9846,"yes",77,32,"facebook","aphantasia_facebook","Stimuli/Stimuli_Grayscaled/Toys/StuffedOwl_grayscaled_1.png","aphant","unmasked","1",-3.68887945411394,-1.62091677697361
"p_041e6a09b1dc61fb","no","yes",0.1,"1","Stimuli/Stimuli_Grayscaled/Toys/EtchASketch_grayscaled_1.png","Toys",0,3.5894,"yes",77,32,"facebook","aphantasia_facebook","Stimuli/Stimuli_Grayscaled/Toys/EtchASketch_grayscaled_1.png","aphant","masked","1",-2.30258509299405,0.639799725147786
"p_041e6a09b1dc61fb","no","no",0.05,"1","Stimuli/Stimuli_Grayscaled/Food/Croissant_grayscaled_1.png","Food",1,0.9388,"yes",77,32,"facebook","aphantasia_facebook","Stimuli/Stimuli_Grayscaled/Food/Croissant_grayscaled_1.png","aphant","unmasked","1",-2.99573227355399,-0.490558525912911
"p_041e6a09b1dc61fb","no","yes",0.075,"1","Stimuli/Stimuli_Grayscaled/Toys/Lego_grayscaled_1.png","Toys",1,1.2008,"yes",77,32,"facebook","aphantasia_facebook","Stimuli/Stimuli_Grayscaled/Toys/Lego_grayscaled_1.png","aphant","masked","1",-2.59026716544583,0.170658663338346
"p_041e6a09b1dc61fb","no","no",0.025,"1","Stimuli/Stimuli_Grayscaled/Food/Cauliflower_grayscaled_1.png","Food",1,0.6221,"yes",77,32,"facebook","aphantasia_facebook","Stimuli/Stimuli_Grayscaled/Food/Cauliflower_grayscaled_1.png","aphant","unmasked","1",-3.68887945411394,-1.62091677697361
"p_041e6a09b1dc61fb","no","no",0.075,"1","Stimuli/Stimuli_Grayscaled/Toys/BallInACup_grayscaled_1.png","Toys",0,2.4167,"yes",77,32,"facebook","aphantasia_facebook","Stimuli/Stimuli_Grayscaled/Toys/BallInACup_grayscaled_1.png","aphant","unmasked","1",-2.59026716544583,0.170658663338346
"p_041e6a09b1dc61fb","no","yes",0.15,"1","Stimuli/Stimuli_Grayscaled/Toys/DollHouse_grayscaled_1.png","Toys",1,0.6505,"yes",77,32,"facebook","aphantasia_facebook","Stimuli/Stimuli_Grayscaled/Toys/DollHouse_grayscaled_1.png","aphant","masked","1",-1.89711998488588,1.30101691439904
"p_041e6a09b1dc61fb","no","yes",0.075,"1","Stimuli/Stimuli_Grayscaled/Tools/PaintRoller_grayscaled_1.png","Tools",1,0.858,"yes",77,32,"facebook","aphantasia_facebook","Stimuli/Stimuli_Grayscaled/Tools/PaintRoller_grayscaled_1.png","aphant","masked","1",-2.59026716544583,0.170658663338346
"p_041e6a09b1dc61fb","no","no",0.1,"1","Stimuli/Stimuli_Grayscaled/Toys/SpinningTop_grayscaled_1.png","Toys",1,0.424,"yes",77,32,"facebook","aphantasia_facebook","Stimuli/Stimuli_Grayscaled/Toys/SpinningTop_grayscaled_1.png","aphant","unmasked","1",-2.30258509299405,0.639799725147786
"p_041e6a09b1dc61fb","no","no",0.05,"1","Stimuli/Stimuli_Grayscaled/Clothing/BaseballCap_grayscaled_1.png","Clothing",1,1.2013,"yes",77,32,"facebook","aphantasia_facebook","Stimuli/Stimuli_Grayscaled/Clothing/BaseballCap_grayscaled_1.png","aphant","unmasked","1",-2.99573227355399,-0.490558525912911
"p_041e6a09b1dc61fb","no","yes",0.075,"1","Stimuli/Stimuli_Grayscaled/Clothing/Blazer_grayscaled_1.png","Clothing",1,1.7598,"yes",77,32,"facebook","aphantasia_facebook","Stimuli/Stimuli_Grayscaled/Clothing/Blazer_grayscaled_1.png","aphant","masked","1",-2.59026716544583,0.170658663338346
"p_041e6a09b1dc61fb","no","no",0.05,"1","Stimuli/Stimuli_Grayscaled/Toys/NerfGun_grayscaled_1.png","Toys",0,0.7015,"yes",77,32,"facebook","aphantasia_facebook","Stimuli/Stimuli_Grayscaled/Toys/NerfGun_grayscaled_1.png","aphant","unmasked","1",-2.99573227355399,-0.490558525912911
