"participant","bubbled","back_masked","SOA","block_num","trial_image","category","correct","rt","aphantasia","age","vviq_standard","source","source_folder","item","group","mask","block","soa_log","soa_s","log_rt"
"p_359aaf68a73a6a7f","yes","yes",0.075,"1","Stimuli/Stimuli_Bubble/Clothing/SnowCoat_bubble_1.jpg","Clothing",1,2.8004,"yes",55,32,"facebook","aphantasia_facebook","Stimuli/Stimuli_Bubble/Clothing/SnowCoat_bubble_1.jpg","aphant","masked","1",-2.59026716544583,0.0285805633768173,1.02976226412091
"p_359aaf68a73a6a7f","yes","yes",0.075,"1","Stimuli/Stimuli_Bubble/Tools/Axe_bubble_1.jpg","Tools",1,0.6841,"yes",55,32,"facebook","aphantasia_facebook","Stimuli/Stimuli_Bubble/Tools/Axe_bubble_1.jpg","aphant","masked","1",-2.59026716544583,0.0285805633768173,-0.379651173215185
"p_359aaf68a73a6a7f","yes","yes",0.1,"1","Stimuli/Stimuli_Bubble/Tools/ServiceCart_bubble_1.jpg","Tools",1,2.1607,"yes",55,32,"facebook","aphantasia_facebook","Stimuli/Stimuli_Bubble/Tools/ServiceCart_bubble_1.jpg","aphant","masked","1",-2.30258509299405,0.519513862239267,0.770432243269487
"p_359aaf68a73a6a7f","yes","no",0.05,"1","Stimuli/Stimuli_Bubble/Tools/PipeWrench_bubble_1.jpg","Tools",1,1.2294,"yes",55,32,"facebook","aphantasia_facebook","Stimuli/Stimuli_Bubble/Tools/PipeWrench_bubble_1.jpg","aphant","unmasked","1",-2.99573227355399,-0.663351058919615,0.206526245490772
"p_359aaf68a73a6a7f","yes","no",0.15,"1","Stimuli/Stimuli_Bubble/Food/Pizza_bubble_1.jpg","Food",1,0.8676,"yes",55,32,"facebook","aphantasia_facebook","Stimuli/Stimuli_Bubble/Food/Pizza_bubble_1.jpg","aphant","unmasked","1",-1.89711998488588,1.2114454845357,-0.142024500029418
"p_359aaf68a73a6a7f","yes","yes",0.05,"1","Stimuli/Stimuli_Bubble/Clothing/Onesie_bubble_1.jpg","Clothing",1,0.5408,"yes",55,32,"facebook","aphantasia_facebook","Stimuli/Stimuli_Bubble/Clothing/Onesie_bubble_1.jpg","aphant","masked","1",-2.99573227355399,-0.663351058919615,-0.614705754253383
"p_359aaf68a73a6a7f","yes","no",0.075,"1","Stimuli/Stimuli_Bubble/Clothing/Skirt_bubble_1.jpg","Clothing",1,0.6352,"yes",55,32,"facebook","aphantasia_facebook","Stimuli/Stimuli_Bubble/Clothing/Skirt_bubble_1.jpg","aphant","unmasked","1",-2.59026716544583,0.0285805633768173,-0.453815369049211
"p_359aaf68a73a6a7f","yes","no",0.075,"1","Stimuli/Stimuli_Bubble/Toys/Doll_bubble_1.jpg","Toys",1,0.1116,"yes",55,32,"facebook","aphantasia_facebook","Stimuli/Stimuli_Bubble/Toys/Doll_bubble_1.jpg","aphant","unmasked","1",-2.59026716544583,0.0285805633768173,-2.19283422903493
"p_359aaf68a73a6a7f","yes","no",0.1,"1","Stimuli/Stimuli_Bubble/Clothing/Jeans_bubble_1.jpg","Clothing",1,0.8889,"yes",55,32,"facebook","aphantasia_facebook","Stimuli/Stimuli_Bubble/Clothing/Jeans_bubble_1.jpg","aphant","unmasked","1",-2.30258509299405,0.519513862239267,-0.117770535734508
"p_359aaf68a73a6a7f","yes","no",0.075,"1","Stimuli/Stimuli_Bubble/Toys/Float_bubble_1.jpg","Toys",1,0.7432,"yes",55,32,"facebook","aphantasia_facebook","Stimuli/Stimuli_Bubble/Toys/Float_bubble_1.jpg","aphant","unmasked","1",-2.59026716544583,0.0285805633768173,-0.296790091482508
"p_359aaf68a73a6a7f","yes","yes",0.025,"1","Stimuli/Stimuli_Bubble/Clothing/SportsBra_bubble_1.jpg","Clothing",1,1.4439,"yes",55,32,"facebook","aphantasia_facebook","Stimuli/Stimuli_Bubble/Clothing/SportsBra_bubble_1.jpg","aphant","masked","1",-3.68887945411394,-1.8462159800785,0.367347785995036
"p_359aaf68a73a6a7f","yes","yes",0.075,"1","Stimuli/Stimuli_Bubble/Toys/Blanket_bubble_1.jpg","Toys",1,8.7331,"yes",55,32,"facebook","aphantasia_facebook","Stimuli/Stimuli_Bubble/Toys/Blanket_bubble_1.jpg","aphant","masked","1",-2.59026716544583,0.0285805633768173,2.16712040418477
"p_359aaf68a73a6a7f","yes","no",0.075,"1","Stimuli/Stimuli_Bubble/Food/Croissant_bubble_1.jpg","Food",1,0.9859,"yes",55,32,"facebook","aphantasia_facebook","Stimuli/Stimuli_Bubble/Food/Croissant_bubble_1.jpg","aphant","unmasked","1",-2.59026716544583,0.0285805633768173,-0.0142003494011414
"p_359aaf68a73a6a7f","yes","no",0.075,"1","Stimuli/Stimuli_Bubble/Food/IceCream_bubble_1.jpg","Food",1,0.4455,"yes",55,32,"facebook","aphantasia_facebook","Stimuli/Stimuli_Bubble/Food/IceCream_bubble_1.jpg","aphant","unmasked","1",-2.59026716544583,0.0285805633768173,-0.808558032071273
"p_359aaf68a73a6a7f","yes","no",0.025,"1","Stimuli/Stimuli_Bubble/Food/Donut_bubble_1.jpg","Food",1,4.7752,"yes",55,32,"facebook","aphantasia_facebook","Stimuli/Stimuli_Bubble/Food/Donut_bubble_1.jpg","aphant","unmasked","1",-3.68887945411394,-1.8462159800785,1.5634358578723
"p_359aaf68a73a6a7f","yes","no",0.05,"1","Stimuli/Stimuli_Bubble/Clothing/Sweatpants_bubble_1.jpg","Clothing",1,0.0619,"yes",55,32,"facebook","aphantasia_facebook","Stimuli/Stimuli_Bubble/Clothing/Sweatpants_bubble_1.jpg","aphant","unmasked","1",-2.99573227355399,-0.663351058919615,-2.78223509929159
"p_359aaf68a73a6a7f","yes","yes",0.15,"1","Stimuli/Stimuli_Bubble/Tools/ClampBar_bubble_1.jpg","Tools",1,0.7671,"yes",55,32,"facebook","aphantasia_facebook","Stimuli/Stimuli_Bubble/Tools/ClampBar_bubble_1.jpg","aphant","masked","1",-1.89711998488588,1.2114454845357,-0.265138108016886
"p_359aaf68a73a6a7f","yes","no",0.025,"1","Stimuli/Stimuli_Bubble/Food/Biscuit_bubble_1.jpg","Food",1,2.253,"yes",55,32,"facebook","aphantasia_facebook","Stimuli/Stimuli_Bubble/Food/Biscuit_bubble_1.jpg","aphant","unmasked","1",-3.68887945411394,-1.8462159800785,0.812262661450107
"p_359aaf68a73a6a7f","yes","no",0.075,"1","Stimuli/Stimuli_Bubble/Clothing/PajamaBottoms_bubble_1.jpg","Clothing",1,0.5861,"yes",55,32,"facebook","aphantasia_facebook","Stimuli/Stimuli_Bubble/Clothing/PajamaBottoms_bubble_1.jpg","aphant","unmasked","1",-2.59026716544583,0.0285805633768173,-0.534264855499754
"p_359aaf68a73a6a7f","yes","yes",0.05,"1","Stimuli/Stimuli_Bubble/Clothing/ActivewearShorts_bubble_1.jpg","Clothing",1,2.6672,"yes",55,32,"facebook","aphantasia_facebook","Stimuli/Stimuli_Bubble/Clothing/ActivewearShorts_bubble_1.jpg","aphant","masked","1",-2.99573227355399,-0.663351058919615,0.981029233014392
"p_359aaf68a73a6a7f","yes","yes",0.15,"1","Stimuli/Stimuli_Bubble/Clothing/Dress_bubble_1.jpg","Clothing",1,2.8075,"yes",55,32,"facebook","aphantasia_facebook","Stimuli/Stimuli_Bubble/Clothing/Dress_bubble_1.jpg","aphant","masked","1",-1.89711998488588,1.2114454845357,1.03229440763046
"p_359aaf68a73a6a7f","yes","no",0.1,"1","Stimuli/Stimuli_Bubble/Tools/Chisel_bubble_1.jpg","Tools",1,1.0254,"yes",55,32,"facebook","aphantasia_facebook","Stimuli/Stimuli_Bubble/Tools/Chisel_bubble_1.jpg","aphant","unmasked","1",-2.30258509299405,0.519513862239267,0.0250827803674632
"p_359aaf68a73a6a7f","yes","yes",0.075,"1","Stimuli/Stimuli_Bubble/Clothing/Shorts_bubble_1.jpg","Clothing",1,0.9108,"yes",55,32,"facebook","aphantasia_facebook","Stimuli/Stimuli_Bubble/Clothing/Shorts_bubble_1.jpg","aphant","masked","1",-2.59026716544583,0.0285805633768173,-0.0934319447925524
"p_359aaf68a73a6a7f","yes","no",0.025,"1","Stimuli/Stimuli_Bubble/Clothing/Overalls_bubble_1.jpg","Clothing",1,0.6004,"yes",55,32,"facebook","aphantasia_facebook","Stimuli/Stimuli_Bubble/Clothing/Overalls_bubble_1.jpg","aphant","unmasked","1",-3.68887945411394,-1.8462159800785,-0.51015917922283
"p_359aaf68a73a6a7f","yes","no",0.15,"1","Stimuli/Stimuli_Bubble/Tools/PaintBrush_bubble_1.jpg","Tools",1,0.7061,"yes",55,32,"facebook","aphantasia_facebook","Stimuli/Stimuli_Bubble/Tools/PaintBrush_bubble_1.jpg","aphant","unmasked","1",-1.89711998488588,1.2114454845357,-0.347998408459836
"p_359aaf68a73a6a7f","yes","no",0.15,"1","Stimuli/Stimuli_Bubble/Tools/Screw_bubble_1.jpg","Tools",1,0.9774,"yes",55,32,"facebook","aphantasia_facebook","Stimuli/Stimuli_Bubble/Tools/Screw_bubble_1.jpg","aphant","unmasked","1",-1.89711998488588,1.2114454845357,-0.0228592941460826
"p_359aaf68a73a6a7f","yes","no",0.1,"1","Stimuli/Stimuli_Bubble/Clothing/Slippers_bubble_1.jpg","Clothing",1,1.7349,"yes",55,32,"facebook","aphantasia_facebook","Stimuli/Stimuli_Bubble/Clothing/Slippers_bubble_1.jpg","aphant","unmasked","1",-2.30258509299405,0.519513862239267,0.550949774850145
"p_359aaf68a73a6a7f","yes","yes",0.1,"1","Stimuli/Stimuli_Bubble/Food/Chips_bubble_1.jpg","Food",1,0.5838,"yes",55,32,"facebook","aphantasia_facebook","Stimuli/Stimuli_Bubble/Food/Chips_bubble_1.jpg","aphant","masked","1",-2.30258509299405,0.519513862239267,-0.538196820562123
"p_359aaf68a73a6a7f","yes","no",0.1,"1","Stimuli/Stimuli_Bubble/Tools/Pliers_bubble_1.jpg","Tools",1,1.7032,"yes",55,32,"facebook","aphantasia_facebook","Stimuli/Stimuli_Bubble/Tools/Pliers_bubble_1.jpg","aphant","unmasked","1",-2.30258509299405,0.519513862239267,0.532508834597133
"p_359aaf68a73a6a7f","yes","no",0.1,"1","Stimuli/Stimuli_Bubble/Clothing/Beanie_bubble_1.jpg","Clothing",1,1.1009,"yes",55,32,"facebook","aphantasia_facebook","Stimuli/Stimuli_Bubble/Clothing/Beanie_bubble_1.jpg","aphant","unmasked","1",-2.30258509299405,0.519513862239267,0.0961280270942204
"p_359aaf68a73a6a7f","yes","yes",0.075,"1","Stimuli/Stimuli_Bubble/Clothing/DenimJacket_bubble_1.jpg","Clothing",1,2.8668,"yes",55,32,"facebook","aphantasia_facebook","Stimuli/Stimuli_Bubble/Clothing/DenimJacket_bubble_1.jpg","aphant","masked","1",-2.59026716544583,0.0285805633768173,1.05319642513763
"p_359aaf68a73a6a7f","yes","no",0.025,"1","Stimuli/Stimuli_Bubble/Toys/Bicycle_bubble_1.jpg","Toys",1,0.5503,"yes",55,32,"facebook","aphantasia_facebook","Stimuli/Stimuli_Bubble/Toys/Bicycle_bubble_1.jpg","aphant","unmasked","1",-3.68887945411394,-1.8462159800785,-0.597291694916424
"p_359aaf68a73a6a7f","yes","no",0.1,"1","Stimuli/Stimuli_Bubble/Tools/Flashlight_bubble_1.jpg","Tools",1,0.4233,"yes",55,32,"facebook","aphantasia_facebook","Stimuli/Stimuli_Bubble/Tools/Flashlight_bubble_1.jpg","aphant","unmasked","1",-2.30258509299405,0.519513862239267,-0.859674131455259
"p_359aaf68a73a6a7f","yes","yes",0.1,"1","Stimuli/Stimuli_Bubble/Clothing/BaseballCap_bubble_1.jpg","Clothing",1,0.3173,"yes",55,32,"facebook","aphantasia_facebook","Stimuli/Stimuli_Bubble/Clothing/BaseballCap_bubble_1.jpg","aphant","masked","1",-2.30258509299405,0.519513862239267,-1.14790758039299
"p_359aaf68a73a6a7f","yes","no",0.075,"1","Stimuli/Stimuli_Bubble/Tools/ChainHook_bubble_1.jpg","Tools",1,0.6507,"yes",55,32,"facebook","aphantasia_facebook","Stimuli/Stimuli_Bubble/Tools/ChainHook_bubble_1.jpg","aphant","unmasked","1",-2.59026716544583,0.0285805633768173,-0.429706572481199
"p_359aaf68a73a6a7f","yes","yes",0.025,"1","Stimuli/Stimuli_Bubble/Clothing/Gloves_bubble_1.jpg","Clothing",1,1.2347,"yes",55,32,"facebook","aphantasia_facebook","Stimuli/Stimuli_Bubble/Clothing/Gloves_bubble_1.jpg","aphant","masked","1",-3.68887945411394,-1.8462159800785,0.210828025591561
"p_359aaf68a73a6a7f","yes","yes",0.15,"1","Stimuli/Stimuli_Bubble/Tools/Plunger_bubble_1.jpg","Tools",1,0.817,"yes",55,32,"facebook","aphantasia_facebook","Stimuli/Stimuli_Bubble/Tools/Plunger_bubble_1.jpg","aphant","masked","1",-1.89711998488588,1.2114454845357,-0.202116184122134
"p_359aaf68a73a6a7f","yes","no",0.15,"1","Stimuli/Stimuli_Bubble/Tools/HandRake_bubble_1.jpg","Tools",1,0.5288,"yes",55,32,"facebook","aphantasia_facebook","Stimuli/Stimuli_Bubble/Tools/HandRake_bubble_1.jpg","aphant","unmasked","1",-1.89711998488588,1.2114454845357,-0.63714499044466
"p_359aaf68a73a6a7f","yes","yes",0.025,"1","Stimuli/Stimuli_Bubble/Clothing/Swimsuit_bubble_1.jpg","Clothing",1,0.6301,"yes",55,32,"facebook","aphantasia_facebook","Stimuli/Stimuli_Bubble/Clothing/Swimsuit_bubble_1.jpg","aphant","masked","1",-3.68887945411394,-1.8462159800785,-0.461876742034127
"p_359aaf68a73a6a7f","yes","no",0.05,"1","Stimuli/Stimuli_Bubble/Clothing/LeatherJacket_bubble_1.jpg","Clothing",1,0.0045,"yes",55,32,"facebook","aphantasia_facebook","Stimuli/Stimuli_Bubble/Clothing/LeatherJacket_bubble_1.jpg","aphant","unmasked","1",-2.99573227355399,-0.663351058919615,-5.40367788220586
"p_359aaf68a73a6a7f","yes","no",0.025,"1","Stimuli/Stimuli_Bubble/Clothing/Shirt_bubble_1.jpg","Clothing",1,0.5673,"yes",55,32,"facebook","aphantasia_facebook","Stimuli/Stimuli_Bubble/Clothing/Shirt_bubble_1.jpg","aphant","unmasked","1",-3.68887945411394,-1.8462159800785,-0.566867014649616
"p_359aaf68a73a6a7f","yes","yes",0.15,"1","Stimuli/Stimuli_Bubble/Food/Melon_bubble_1.jpg","Food",1,0.567,"yes",55,32,"facebook","aphantasia_facebook","Stimuli/Stimuli_Bubble/Food/Melon_bubble_1.jpg","aphant","masked","1",-1.89711998488588,1.2114454845357,-0.567395975254385
"p_359aaf68a73a6a7f","yes","no",0.15,"1","Stimuli/Stimuli_Bubble/Clothing/Gumboots_bubble_1.jpg","Clothing",1,0.5292,"yes",55,32,"facebook","aphantasia_facebook","Stimuli/Stimuli_Bubble/Clothing/Gumboots_bubble_1.jpg","aphant","unmasked","1",-1.89711998488588,1.2114454845357,-0.636388846741336
"p_359aaf68a73a6a7f","yes","yes",0.15,"1","Stimuli/Stimuli_Bubble/Toys/EtchASketch_bubble_1.jpg","Toys",1,1.6022,"yes",55,32,"facebook","aphantasia_facebook","Stimuli/Stimuli_Bubble/Toys/EtchASketch_bubble_1.jpg","aphant","masked","1",-1.89711998488588,1.2114454845357,0.471377684798879
"p_359aaf68a73a6a7f","yes","yes",0.1,"1","Stimuli/Stimuli_Bubble/Clothing/Bikini_bubble_1.jpg","Clothing",1,1.3718,"yes",55,32,"facebook","aphantasia_facebook","Stimuli/Stimuli_Bubble/Clothing/Bikini_bubble_1.jpg","aphant","masked","1",-2.30258509299405,0.519513862239267,0.316123746083084
"p_359aaf68a73a6a7f","yes","yes",0.15,"1","Stimuli/Stimuli_Bubble/Clothing/Coat_bubble_1.jpg","Clothing",1,0.5776,"yes",55,32,"facebook","aphantasia_facebook","Stimuli/Stimuli_Bubble/Clothing/Coat_bubble_1.jpg","aphant","masked","1",-1.89711998488588,1.2114454845357,-0.548873691403521
"p_359aaf68a73a6a7f","yes","yes",0.05,"1","Stimuli/Stimuli_Bubble/Clothing/SnowBoots_bubble_1.jpg","Clothing",1,0.8608,"yes",55,32,"facebook","aphantasia_facebook","Stimuli/Stimuli_Bubble/Clothing/SnowBoots_bubble_1.jpg","aphant","masked","1",-2.99573227355399,-0.663351058919615,-0.149893089574617
"p_359aaf68a73a6a7f","yes","yes",0.075,"1","Stimuli/Stimuli_Bubble/Tools/HandTruck_bubble_1.jpg","Tools",1,0.7696,"yes",55,32,"facebook","aphantasia_facebook","Stimuli/Stimuli_Bubble/Tools/HandTruck_bubble_1.jpg","aphant","masked","1",-2.59026716544583,0.0285805633768173,-0.26188437963064
"p_359aaf68a73a6a7f","yes","no",0.075,"1","Stimuli/Stimuli_Bubble/Food/Beetroot_bubble_1.jpg","Food",1,0.8349,"yes",55,32,"facebook","aphantasia_facebook","Stimuli/Stimuli_Bubble/Food/Beetroot_bubble_1.jpg","aphant","unmasked","1",-2.59026716544583,0.0285805633768173,-0.180443321782182
"p_359aaf68a73a6a7f","yes","no",0.15,"1","Stimuli/Stimuli_Bubble/Clothing/Panties_bubble_1.jpg","Clothing",1,0.5345,"yes",55,32,"facebook","aphantasia_facebook","Stimuli/Stimuli_Bubble/Clothing/Panties_bubble_1.jpg","aphant","unmasked","1",-1.89711998488588,1.2114454845357,-0.626423548517037
"p_359aaf68a73a6a7f","yes","no",0.05,"1","Stimuli/Stimuli_Bubble/Clothing/Belt_bubble_1.jpg","Clothing",1,0.4512,"yes",55,32,"facebook","aphantasia_facebook","Stimuli/Stimuli_Bubble/Clothing/Belt_bubble_1.jpg","aphant","unmasked","1",-2.99573227355399,-0.663351058919615,-0.795844578798288
"p_359aaf68a73a6a7f","yes","no",0.025,"1","Stimuli/Stimuli_Bubble/Clothing/Hoodie_bubble_1.jpg","Clothing",1,0.5484,"yes",55,32,"facebook","aphantasia_facebook","Stimuli/Stimuli_Bubble/Clothing/Hoodie_bubble_1.jpg","aphant","unmasked","1",-3.68887945411394,-1.8462159800785,-0.600750331293978
"p_359aaf68a73a6a7f","yes","yes",0.1,"1","Stimuli/Stimuli_Bubble/Tools/Level_bubble_1.jpg","Tools",1,2.2175,"yes",55,32,"facebook","aphantasia_facebook","Stimuli/Stimuli_Bubble/Tools/Level_bubble_1.jpg","aphant","masked","1",-2.30258509299405,0.519513862239267,0.796380435201597
"p_359aaf68a73a6a7f","yes","yes",0.1,"1","Stimuli/Stimuli_Bubble/Clothing/Boxers_bubble_1.jpg","Clothing",1,0.0744,"yes",55,32,"facebook","aphantasia_facebook","Stimuli/Stimuli_Bubble/Clothing/Boxers_bubble_1.jpg","aphant","masked","1",-2.30258509299405,0.519513862239267,-2.59829933714309
"p_359aaf68a73a6a7f","yes","no",0.15,"1","Stimuli/Stimuli_Bubble/Toys/ActivityGym_bubble_1.jpg","Toys",1,0.6607,"yes",55,32,"facebook","aphantasia_facebook","Stimuli/Stimuli_Bubble/Toys/ActivityGym_bubble_1.jpg","aphant","unmasked","1",-1.89711998488588,1.2114454845357,-0.414455399946297
"p_359aaf68a73a6a7f","yes","no",0.075,"1","Stimuli/Stimuli_Bubble/Clothing/Raincoat_bubble_1.jpg","Clothing",1,1.0067,"yes",55,32,"facebook","aphantasia_facebook","Stimuli/Stimuli_Bubble/Clothing/Raincoat_bubble_1.jpg","aphant","unmasked","1",-2.59026716544583,0.0285805633768173,0.0066776547532405
"p_359aaf68a73a6a7f","yes","yes",0.15,"1","Stimuli/Stimuli_Bubble/Tools/PaintRoller_bubble_1.jpg","Tools",1,1.828,"yes",55,32,"facebook","aphantasia_facebook","Stimuli/Stimuli_Bubble/Tools/PaintRoller_bubble_1.jpg","aphant","masked","1",-1.89711998488588,1.2114454845357,0.603222473031958
"p_359aaf68a73a6a7f","yes","yes",0.05,"1","Stimuli/Stimuli_Bubble/Tools/Snip_bubble_1.jpg","Tools",1,1.1033,"yes",55,32,"facebook","aphantasia_facebook","Stimuli/Stimuli_Bubble/Tools/Snip_bubble_1.jpg","aphant","masked","1",-2.99573227355399,-0.663351058919615,0.0983056887841233
"p_359aaf68a73a6a7f","yes","no",0.05,"1","Stimuli/Stimuli_Bubble/Tools/BlacksmithTongs_bubble_1.jpg","Tools",1,0.8174,"yes",55,32,"facebook","aphantasia_facebook","Stimuli/Stimuli_Bubble/Tools/BlacksmithTongs_bubble_1.jpg","aphant","unmasked","1",-2.99573227355399,-0.663351058919615,-0.20162670785196
"p_359aaf68a73a6a7f","yes","yes",0.075,"2","Stimuli/Stimuli_Bubble/Toys/Barbie_bubble_2.jpg","Toys",1,1.1038,"yes",55,32,"facebook","aphantasia_facebook","Stimuli/Stimuli_Bubble/Toys/Barbie_bubble_2.jpg","aphant","masked","2",-2.59026716544583,0.0285805633768173,0.0987587720232638
"p_359aaf68a73a6a7f","yes","no",0.15,"2","Stimuli/Stimuli_Bubble/Food/Corn_bubble_2.jpg","Food",1,0.7096,"yes",55,32,"facebook","aphantasia_facebook","Stimuli/Stimuli_Bubble/Food/Corn_bubble_2.jpg","aphant","unmasked","2",-1.89711998488588,1.2114454845357,-0.343053847986767
"p_359aaf68a73a6a7f","yes","yes",0.025,"2","Stimuli/Stimuli_Bubble/Clothing/Scarf_bubble_2.jpg","Clothing",1,3.4197,"yes",55,32,"facebook","aphantasia_facebook","Stimuli/Stimuli_Bubble/Clothing/Scarf_bubble_2.jpg","aphant","masked","2",-3.68887945411394,-1.8462159800785,1.22955282792871
"p_359aaf68a73a6a7f","yes","no",0.1,"2","Stimuli/Stimuli_Bubble/Tools/ServiceCart_bubble_2.jpg","Tools",1,0.6463,"yes",55,32,"facebook","aphantasia_facebook","Stimuli/Stimuli_Bubble/Tools/ServiceCart_bubble_2.jpg","aphant","unmasked","2",-2.30258509299405,0.519513862239267,-0.436491486713287
"p_359aaf68a73a6a7f","yes","no",0.15,"2","Stimuli/Stimuli_Bubble/Tools/PaintTray_bubble_2.jpg","Tools",1,1.5508,"yes",55,32,"facebook","aphantasia_facebook","Stimuli/Stimuli_Bubble/Tools/PaintTray_bubble_2.jpg","aphant","unmasked","2",-1.89711998488588,1.2114454845357,0.438770926814637
"p_359aaf68a73a6a7f","yes","no",0.025,"2","Stimuli/Stimuli_Bubble/Tools/BoltCutter_bubble_2.jpg","Tools",1,0.4447,"yes",55,32,"facebook","aphantasia_facebook","Stimuli/Stimuli_Bubble/Tools/BoltCutter_bubble_2.jpg","aphant","unmasked","2",-3.68887945411394,-1.8462159800785,-0.810355381465486
"p_359aaf68a73a6a7f","yes","yes",0.025,"2","Stimuli/Stimuli_Bubble/Clothing/Belt_bubble_2.jpg","Clothing",1,2.4398,"yes",55,32,"facebook","aphantasia_facebook","Stimuli/Stimuli_Bubble/Clothing/Belt_bubble_2.jpg","aphant","masked","2",-3.68887945411394,-1.8462159800785,0.8919160687325
"p_359aaf68a73a6a7f","yes","yes",0.15,"2","Stimuli/Stimuli_Bubble/Tools/HandTruck_bubble_2.jpg","Tools",1,0.134,"yes",55,32,"facebook","aphantasia_facebook","Stimuli/Stimuli_Bubble/Tools/HandTruck_bubble_2.jpg","aphant","masked","2",-1.89711998488588,1.2114454845357,-2.00991547903123
"p_359aaf68a73a6a7f","yes","no",0.1,"2","Stimuli/Stimuli_Bubble/Clothing/Panties_bubble_2.jpg","Clothing",1,1.0128,"yes",55,32,"facebook","aphantasia_facebook","Stimuli/Stimuli_Bubble/Clothing/Panties_bubble_2.jpg","aphant","unmasked","2",-2.30258509299405,0.519513862239267,0.0127187724077746
"p_359aaf68a73a6a7f","yes","no",0.15,"2","Stimuli/Stimuli_Bubble/Toys/StuffedHippo_bubble_2.jpg","Toys",1,1.2377,"yes",55,32,"facebook","aphantasia_facebook","Stimuli/Stimuli_Bubble/Toys/StuffedHippo_bubble_2.jpg","aphant","unmasked","2",-1.89711998488588,1.2114454845357,0.21325481856384
"p_359aaf68a73a6a7f","yes","yes",0.15,"2","Stimuli/Stimuli_Bubble/Tools/BlacksmithTongs_bubble_2.jpg","Tools",1,1.7424,"yes",55,32,"facebook","aphantasia_facebook","Stimuli/Stimuli_Bubble/Tools/BlacksmithTongs_bubble_2.jpg","aphant","masked","2",-1.89711998488588,1.2114454845357,0.555263473196559
"p_359aaf68a73a6a7f","yes","no",0.025,"2","Stimuli/Stimuli_Bubble/Toys/Bicycle_bubble_2.jpg","Toys",1,0.671,"yes",55,32,"facebook","aphantasia_facebook","Stimuli/Stimuli_Bubble/Toys/Bicycle_bubble_2.jpg","aphant","unmasked","2",-3.68887945411394,-1.8462159800785,-0.398986142010455
"p_359aaf68a73a6a7f","yes","yes",0.075,"2","Stimuli/Stimuli_Bubble/Clothing/DenimJacket_bubble_2.jpg","Clothing",1,0.1434,"yes",55,32,"facebook","aphantasia_facebook","Stimuli/Stimuli_Bubble/Clothing/DenimJacket_bubble_2.jpg","aphant","masked","2",-2.59026716544583,0.0285805633768173,-1.94211735081662
"p_359aaf68a73a6a7f","yes","yes",0.15,"2","Stimuli/Stimuli_Bubble/Clothing/Blazer_bubble_2.jpg","Clothing",1,0.6828,"yes",55,32,"facebook","aphantasia_facebook","Stimuli/Stimuli_Bubble/Clothing/Blazer_bubble_2.jpg","aphant","masked","2",-1.89711998488588,1.2114454845357,-0.381553288061852
"p_359aaf68a73a6a7f","yes","yes",0.1,"2","Stimuli/Stimuli_Bubble/Clothing/ActivewearShorts_bubble_2.jpg","Clothing",1,0.8679,"yes",55,32,"facebook","aphantasia_facebook","Stimuli/Stimuli_Bubble/Clothing/ActivewearShorts_bubble_2.jpg","aphant","masked","2",-2.30258509299405,0.519513862239267,-0.141678778331938
"p_359aaf68a73a6a7f","yes","no",0.15,"2","Stimuli/Stimuli_Bubble/Tools/ScrewDriver_bubble_2.jpg","Tools",1,0.6423,"yes",55,32,"facebook","aphantasia_facebook","Stimuli/Stimuli_Bubble/Tools/ScrewDriver_bubble_2.jpg","aphant","unmasked","2",-1.89711998488588,1.2114454845357,-0.44269979471839
"p_359aaf68a73a6a7f","yes","no",0.075,"2","Stimuli/Stimuli_Bubble/Clothing/SnowBoots_bubble_2.jpg","Clothing",1,1.0029,"yes",55,32,"facebook","aphantasia_facebook","Stimuli/Stimuli_Bubble/Clothing/SnowBoots_bubble_2.jpg","aphant","unmasked","2",-2.59026716544583,0.0285805633768173,0.00289580311202547
"p_359aaf68a73a6a7f","yes","no",0.025,"2","Stimuli/Stimuli_Bubble/Clothing/Overalls_bubble_2.jpg","Clothing",1,1.2433,"yes",55,32,"facebook","aphantasia_facebook","Stimuli/Stimuli_Bubble/Clothing/Overalls_bubble_2.jpg","aphant","unmasked","2",-3.68887945411394,-1.8462159800785,0.217769134976755
"p_359aaf68a73a6a7f","yes","no",0.05,"2","Stimuli/Stimuli_Bubble/Tools/PipeWrench_bubble_2.jpg","Tools",1,0.7084,"yes",55,32,"facebook","aphantasia_facebook","Stimuli/Stimuli_Bubble/Tools/PipeWrench_bubble_2.jpg","aphant","unmasked","2",-2.99573227355399,-0.663351058919615,-0.344746373073459
"p_359aaf68a73a6a7f","yes","no",0.05,"2","Stimuli/Stimuli_Bubble/Tools/Level_bubble_2.jpg","Tools",1,0.5608,"yes",55,32,"facebook","aphantasia_facebook","Stimuli/Stimuli_Bubble/Tools/Level_bubble_2.jpg","aphant","unmasked","2",-2.99573227355399,-0.663351058919615,-0.578390943261757
"p_359aaf68a73a6a7f","yes","no",0.15,"2","Stimuli/Stimuli_Bubble/Clothing/Heels_bubble_2.jpg","Clothing",1,1.2292,"yes",55,32,"facebook","aphantasia_facebook","Stimuli/Stimuli_Bubble/Clothing/Heels_bubble_2.jpg","aphant","unmasked","2",-1.89711998488588,1.2114454845357,0.206363551274193
"p_359aaf68a73a6a7f","yes","yes",0.1,"2","Stimuli/Stimuli_Bubble/Toys/Abacus_bubble_2.jpg","Toys",1,1.2767,"yes",55,32,"facebook","aphantasia_facebook","Stimuli/Stimuli_Bubble/Toys/Abacus_bubble_2.jpg","aphant","masked","2",-2.30258509299405,0.519513862239267,0.244278623844168
"p_359aaf68a73a6a7f","yes","yes",0.1,"2","Stimuli/Stimuli_Bubble/Tools/LeafBlower_bubble_2.jpg","Tools",1,0.7964,"yes",55,32,"facebook","aphantasia_facebook","Stimuli/Stimuli_Bubble/Tools/LeafBlower_bubble_2.jpg","aphant","masked","2",-2.30258509299405,0.519513862239267,-0.227653706792096
"p_359aaf68a73a6a7f","yes","yes",0.15,"2","Stimuli/Stimuli_Bubble/Clothing/Sweater_bubble_2.jpg","Clothing",1,0.784,"yes",55,32,"facebook","aphantasia_facebook","Stimuli/Stimuli_Bubble/Clothing/Sweater_bubble_2.jpg","aphant","masked","2",-1.89711998488588,1.2114454845357,-0.243346258631729
"p_359aaf68a73a6a7f","yes","no",0.075,"2","Stimuli/Stimuli_Bubble/Toys/Lego_bubble_2.jpg","Toys",1,0.8515,"yes",55,32,"facebook","aphantasia_facebook","Stimuli/Stimuli_Bubble/Toys/Lego_bubble_2.jpg","aphant","unmasked","2",-2.59026716544583,0.0285805633768173,-0.160755778879394
"p_359aaf68a73a6a7f","yes","no",0.075,"2","Stimuli/Stimuli_Bubble/Tools/PaintRoller_bubble_2.jpg","Tools",1,0.833,"yes",55,32,"facebook","aphantasia_facebook","Stimuli/Stimuli_Bubble/Tools/PaintRoller_bubble_2.jpg","aphant","unmasked","2",-2.59026716544583,0.0285805633768173,-0.182721636815294
"p_359aaf68a73a6a7f","yes","no",0.075,"2","Stimuli/Stimuli_Bubble/Toys/ActivityGym_bubble_2.jpg","Toys",1,0.9907,"yes",55,32,"facebook","aphantasia_facebook","Stimuli/Stimuli_Bubble/Toys/ActivityGym_bubble_2.jpg","aphant","unmasked","2",-2.59026716544583,0.0285805633768173,-0.00934351500315247
"p_359aaf68a73a6a7f","yes","no",0.15,"2","Stimuli/Stimuli_Bubble/Clothing/PajamaTop_bubble_2.jpg","Clothing",1,0.6635,"yes",55,32,"facebook","aphantasia_facebook","Stimuli/Stimuli_Bubble/Clothing/PajamaTop_bubble_2.jpg","aphant","unmasked","2",-1.89711998488588,1.2114454845357,-0.410226425209875
"p_359aaf68a73a6a7f","yes","yes",0.15,"2","Stimuli/Stimuli_Bubble/Food/Eggplant_bubble_2.jpg","Food",1,0.6115,"yes",55,32,"facebook","aphantasia_facebook","Stimuli/Stimuli_Bubble/Food/Eggplant_bubble_2.jpg","aphant","masked","2",-1.89711998488588,1.2114454845357,-0.49184032385491
"p_359aaf68a73a6a7f","yes","no",0.075,"2","Stimuli/Stimuli_Bubble/Tools/Shovel_bubble_2.jpg","Tools",1,0.7508,"yes",55,32,"facebook","aphantasia_facebook","Stimuli/Stimuli_Bubble/Tools/Shovel_bubble_2.jpg","aphant","unmasked","2",-2.59026716544583,0.0285805633768173,-0.286615974269783
"p_359aaf68a73a6a7f","yes","no",0.15,"2","Stimuli/Stimuli_Bubble/Food/Cupcake_bubble_2.jpg","Food",1,0.6201,"yes",55,32,"facebook","aphantasia_facebook","Stimuli/Stimuli_Bubble/Food/Cupcake_bubble_2.jpg","aphant","unmasked","2",-1.89711998488588,1.2114454845357,-0.477874523626305
"p_359aaf68a73a6a7f","yes","yes",0.15,"2","Stimuli/Stimuli_Bubble/Toys/Rattle_bubble_2.jpg","Toys",1,1.4032,"yes",55,32,"facebook","aphantasia_facebook","Stimuli/Stimuli_Bubble/Toys/Rattle_bubble_2.jpg","aphant","masked","2",-1.89711998488588,1.2114454845357,0.338755342635782
"p_359aaf68a73a6a7f","yes","yes",0.15,"2","Stimuli/Stimuli_Bubble/Toys/BathToys_bubble_2.jpg","Toys",1,0.7824,"yes",55,32,"facebook","aphantasia_facebook","Stimuli/Stimuli_Bubble/Toys/BathToys_bubble_2.jpg","aphant","masked","2",-1.89711998488588,1.2114454845357,-0.24538916026153
"p_359aaf68a73a6a7f","yes","no",0.05,"2","Stimuli/Stimuli_Bubble/Food/Onion_bubble_2.jpg","Food",1,0.6667,"yes",55,32,"facebook","aphantasia_facebook","Stimuli/Stimuli_Bubble/Food/Onion_bubble_2.jpg","aphant","unmasked","2",-2.99573227355399,-0.663351058919615,-0.405415109358123
"p_359aaf68a73a6a7f","yes","yes",0.05,"2","Stimuli/Stimuli_Bubble/Clothing/Skirt_bubble_2.jpg","Clothing",1,0.7991,"yes",55,32,"facebook","aphantasia_facebook","Stimuli/Stimuli_Bubble/Clothing/Skirt_bubble_2.jpg","aphant","masked","2",-2.99573227355399,-0.663351058919615,-0.22426918460172
"p_359aaf68a73a6a7f","yes","no",0.1,"2","Stimuli/Stimuli_Bubble/Clothing/Bikini_bubble_2.jpg","Clothing",1,0.8944,"yes",55,32,"facebook","aphantasia_facebook","Stimuli/Stimuli_Bubble/Clothing/Bikini_bubble_2.jpg","aphant","unmasked","2",-2.30258509299405,0.519513862239267,-0.111602176581302
"p_359aaf68a73a6a7f","yes","no",0.075,"2","Stimuli/Stimuli_Bubble/Food/Cauliflower_bubble_2.jpg","Food",1,1.1479,"yes",55,32,"facebook","aphantasia_facebook","Stimuli/Stimuli_Bubble/Food/Cauliflower_bubble_2.jpg","aphant","unmasked","2",-2.59026716544583,0.0285805633768173,0.137934186089314
"p_359aaf68a73a6a7f","yes","no",0.1,"2","Stimuli/Stimuli_Bubble/Food/Potato_bubble_2.jpg","Food",1,0.7691,"yes",55,32,"facebook","aphantasia_facebook","Stimuli/Stimuli_Bubble/Food/Potato_bubble_2.jpg","aphant","unmasked","2",-2.30258509299405,0.519513862239267,-0.262534278919129
"p_359aaf68a73a6a7f","yes","no",0.1,"2","Stimuli/Stimuli_Bubble/Tools/LawnMower_bubble_2.jpg","Tools",1,0.6987,"yes",55,32,"facebook","aphantasia_facebook","Stimuli/Stimuli_Bubble/Tools/LawnMower_bubble_2.jpg","aphant","unmasked","2",-2.30258509299405,0.519513862239267,-0.358533813423732
"p_359aaf68a73a6a7f","yes","yes",0.1,"2","Stimuli/Stimuli_Bubble/Clothing/Romper_bubble_2.jpg","Clothing",1,0.9255,"yes",55,32,"facebook","aphantasia_facebook","Stimuli/Stimuli_Bubble/Clothing/Romper_bubble_2.jpg","aphant","masked","2",-2.30258509299405,0.519513862239267,-0.0774211469685849
"p_359aaf68a73a6a7f","yes","no",0.075,"2","Stimuli/Stimuli_Bubble/Clothing/Raincoat_bubble_2.jpg","Clothing",1,1.1577,"yes",55,32,"facebook","aphantasia_facebook","Stimuli/Stimuli_Bubble/Clothing/Raincoat_bubble_2.jpg","aphant","unmasked","2",-2.59026716544583,0.0285805633768173,0.146435278229546
"p_359aaf68a73a6a7f","yes","yes",0.075,"2","Stimuli/Stimuli_Bubble/Tools/Chisel_bubble_2.jpg","Tools",1,1.1523,"yes",55,32,"facebook","aphantasia_facebook","Stimuli/Stimuli_Bubble/Tools/Chisel_bubble_2.jpg","aphant","masked","2",-2.59026716544583,0.0285805633768173,0.141759945037832
"p_359aaf68a73a6a7f","yes","yes",0.15,"2","Stimuli/Stimuli_Bubble/Tools/Blowtorch_bubble_2.jpg","Tools",1,0.7575,"yes",55,32,"facebook","aphantasia_facebook","Stimuli/Stimuli_Bubble/Tools/Blowtorch_bubble_2.jpg","aphant","masked","2",-1.89711998488588,1.2114454845357,-0.277731741598613
"p_359aaf68a73a6a7f","yes","no",0.025,"2","Stimuli/Stimuli_Bubble/Clothing/Sweatpants_bubble_2.jpg","Clothing",1,0.7262,"yes",55,32,"facebook","aphantasia_facebook","Stimuli/Stimuli_Bubble/Clothing/Sweatpants_bubble_2.jpg","aphant","unmasked","2",-3.68887945411394,-1.8462159800785,-0.319929820001902
"p_359aaf68a73a6a7f","yes","no",0.1,"2","Stimuli/Stimuli_Bubble/Clothing/SnowCoat_bubble_2.jpg","Clothing",1,1.0965,"yes",55,32,"facebook","aphantasia_facebook","Stimuli/Stimuli_Bubble/Clothing/SnowCoat_bubble_2.jpg","aphant","unmasked","2",-2.30258509299405,0.519513862239267,0.0921232888758059
"p_359aaf68a73a6a7f","yes","no",0.025,"2","Stimuli/Stimuli_Bubble/Tools/GardenHose_bubble_2.jpg","Tools",1,0.7175,"yes",55,32,"facebook","aphantasia_facebook","Stimuli/Stimuli_Bubble/Tools/GardenHose_bubble_2.jpg","aphant","unmasked","2",-3.68887945411394,-1.8462159800785,-0.331982331348361
"p_359aaf68a73a6a7f","yes","no",0.1,"2","Stimuli/Stimuli_Bubble/Food/Orange_bubble_2.jpg","Food",1,0.8138,"yes",55,32,"facebook","aphantasia_facebook","Stimuli/Stimuli_Bubble/Food/Orange_bubble_2.jpg","aphant","unmasked","2",-2.30258509299405,0.519513862239267,-0.206040643414548
"p_359aaf68a73a6a7f","yes","no",0.05,"2","Stimuli/Stimuli_Bubble/Clothing/Socks_bubble_2.jpg","Clothing",1,0.6674,"yes",55,32,"facebook","aphantasia_facebook","Stimuli/Stimuli_Bubble/Clothing/Socks_bubble_2.jpg","aphant","unmasked","2",-2.99573227355399,-0.663351058919615,-0.404365712664863
"p_359aaf68a73a6a7f","yes","yes",0.15,"2","Stimuli/Stimuli_Bubble/Clothing/Gloves_bubble_2.jpg","Clothing",1,1.052,"yes",55,32,"facebook","aphantasia_facebook","Stimuli/Stimuli_Bubble/Clothing/Gloves_bubble_2.jpg","aphant","masked","2",-1.89711998488588,1.2114454845357,0.0506931143155182
"p_359aaf68a73a6a7f","yes","yes",0.075,"2","Stimuli/Stimuli_Bubble/Clothing/Hoodie_bubble_2.jpg","Clothing",1,0.785,"yes",55,32,"facebook","aphantasia_facebook","Stimuli/Stimuli_Bubble/Clothing/Hoodie_bubble_2.jpg","aphant","masked","2",-2.59026716544583,0.0285805633768173,-0.242071561199729
"p_359aaf68a73a6a7f","yes","no",0.025,"2","Stimuli/Stimuli_Bubble/Clothing/HaremPants_bubble_2.jpg","Clothing",1,0.4694,"yes",55,32,"facebook","aphantasia_facebook","Stimuli/Stimuli_Bubble/Clothing/HaremPants_bubble_2.jpg","aphant","unmasked","2",-3.68887945411394,-1.8462159800785,-0.756299995565214
"p_359aaf68a73a6a7f","yes","yes",0.1,"2","Stimuli/Stimuli_Bubble/Tools/Ratchet_bubble_2.jpg","Tools",1,0.45,"yes",55,32,"facebook","aphantasia_facebook","Stimuli/Stimuli_Bubble/Tools/Ratchet_bubble_2.jpg","aphant","masked","2",-2.30258509299405,0.519513862239267,-0.798507696217772
"p_359aaf68a73a6a7f","yes","no",0.1,"2","Stimuli/Stimuli_Bubble/Food/Melon_bubble_2.jpg","Food",1,0.5446,"yes",55,32,"facebook","aphantasia_facebook","Stimuli/Stimuli_Bubble/Food/Melon_bubble_2.jpg","aphant","unmasked","2",-2.30258509299405,0.519513862239267,-0.607703698742478
"p_359aaf68a73a6a7f","yes","no",0.05,"2","Stimuli/Stimuli_Bubble/Tools/Flashlight_bubble_2.jpg","Tools",1,0.5873,"yes",55,32,"facebook","aphantasia_facebook","Stimuli/Stimuli_Bubble/Tools/Flashlight_bubble_2.jpg","aphant","unmasked","2",-2.99573227355399,-0.663351058919615,-0.532219516453663
"p_359aaf68a73a6a7f","yes","yes",0.05,"2","Stimuli/Stimuli_Bubble/Tools/Screw_bubble_2.jpg","Tools",1,0.5807,"yes",55,32,"facebook","aphantasia_facebook","Stimuli/Stimuli_Bubble/Tools/Screw_bubble_2.jpg","aphant","masked","2",-2.99573227355399,-0.663351058919615,-0.543521006604133
"p_359aaf68a73a6a7f","yes","yes",0.1,"2","Stimuli/Stimuli_Bubble/Clothing/Swimsuit_bubble_2.jpg","Clothing",1,1.3509,"yes",55,32,"facebook","aphantasia_facebook","Stimuli/Stimuli_Bubble/Clothing/Swimsuit_bubble_2.jpg","aphant","masked","2",-2.30258509299405,0.519513862239267,0.300771036993499
"p_359aaf68a73a6a7f","yes","no",0.05,"2","Stimuli/Stimuli_Bubble/Clothing/Hat_bubble_2.jpg","Clothing",1,0.6013,"yes",55,32,"facebook","aphantasia_facebook","Stimuli/Stimuli_Bubble/Clothing/Hat_bubble_2.jpg","aphant","unmasked","2",-2.99573227355399,-0.663351058919615,-0.508661300936614
"p_359aaf68a73a6a7f","yes","no",0.05,"2","Stimuli/Stimuli_Bubble/Food/Broccoli_bubble_2.jpg","Food",1,0.9184,"yes",55,32,"facebook","aphantasia_facebook","Stimuli/Stimuli_Bubble/Food/Broccoli_bubble_2.jpg","aphant","unmasked","2",-2.99573227355399,-0.663351058919615,-0.0851222534168351
"p_359aaf68a73a6a7f","yes","no",0.15,"2","Stimuli/Stimuli_Bubble/Toys/Slinky_bubble_2.jpg","Toys",1,1.3093,"yes",55,32,"facebook","aphantasia_facebook","Stimuli/Stimuli_Bubble/Toys/Slinky_bubble_2.jpg","aphant","unmasked","2",-1.89711998488588,1.2114454845357,0.26949264325157
"p_359aaf68a73a6a7f","yes","yes",0.025,"2","Stimuli/Stimuli_Bubble/Clothing/LeatherJacket_bubble_2.jpg","Clothing",1,0.102,"yes",55,32,"facebook","aphantasia_facebook","Stimuli/Stimuli_Bubble/Clothing/LeatherJacket_bubble_2.jpg","aphant","masked","2",-3.68887945411394,-1.8462159800785,-2.28278246569787
"p_359aaf68a73a6a7f","yes","yes",0.075,"2","Stimuli/Stimuli_Bubble/Clothing/BaseballCap_bubble_2.jpg","Clothing",1,1.1001,"yes",55,32,"facebook","aphantasia_facebook","Stimuli/Stimuli_Bubble/Clothing/BaseballCap_bubble_2.jpg","aphant","masked","2",-2.59026716544583,0.0285805633768173,0.095401084763253
"p_359aaf68a73a6a7f","yes","no",0.15,"2","Stimuli/Stimuli_Bubble/Clothing/PajamaBottoms_bubble_2.jpg","Clothing",1,0.804,"yes",55,32,"facebook","aphantasia_facebook","Stimuli/Stimuli_Bubble/Clothing/PajamaBottoms_bubble_2.jpg","aphant","unmasked","2",-1.89711998488588,1.2114454845357,-0.218156009803171
"p_359aaf68a73a6a7f","yes","yes",0.05,"2","Stimuli/Stimuli_Bubble/Clothing/Shorts_bubble_2.jpg","Clothing",1,1.6431,"yes",55,32,"facebook","aphantasia_facebook","Stimuli/Stimuli_Bubble/Clothing/Shorts_bubble_2.jpg","aphant","masked","2",-2.99573227355399,-0.663351058919615,0.496584701475648
"p_359aaf68a73a6a7f","yes","yes",0.05,"2","Stimuli/Stimuli_Bubble/Toys/SpinningTop_bubble_2.jpg","Toys",1,1.6994,"yes",55,32,"facebook","aphantasia_facebook","Stimuli/Stimuli_Bubble/Toys/SpinningTop_bubble_2.jpg","aphant","masked","2",-2.99573227355399,-0.663351058919615,0.530275247587304
"p_359aaf68a73a6a7f","yes","no",0.075,"2","Stimuli/Stimuli_Bubble/Clothing/Boxers_bubble_2.jpg","Clothing",1,1.499,"yes",55,32,"facebook","aphantasia_facebook","Stimuli/Stimuli_Bubble/Clothing/Boxers_bubble_2.jpg","aphant","unmasked","2",-2.59026716544583,0.0285805633768173,0.404798219120461
"p_359aaf68a73a6a7f","yes","no",0.05,"2","Stimuli/Stimuli_Bubble/Clothing/Dress_bubble_2.jpg","Clothing",1,0.7634,"yes",55,32,"facebook","aphantasia_facebook","Stimuli/Stimuli_Bubble/Clothing/Dress_bubble_2.jpg","aphant","unmasked","2",-2.99573227355399,-0.663351058919615,-0.269973138671008
"p_359aaf68a73a6a7f","yes","no",0.05,"2","Stimuli/Stimuli_Bubble/Toys/Dinosaur_bubble_2.jpg","Toys",1,0.9339,"yes",55,32,"facebook","aphantasia_facebook","Stimuli/Stimuli_Bubble/Toys/Dinosaur_bubble_2.jpg","aphant","unmasked","2",-2.99573227355399,-0.663351058919615,-0.0683859128664649
"p_6e29a00f3e8415e3","yes","no",0.05,"2","Stimuli/Stimuli_Bubble/Clothing/PajamaBottoms_bubble_2.jpg","Clothing",1,2.8813,"yes",39,32,"facebook","aphantasia_facebook","Stimuli/Stimuli_Bubble/Clothing/PajamaBottoms_bubble_2.jpg","aphant","unmasked","2",-2.99573227355399,-0.663351058919615,1.05824158119143
"p_6e29a00f3e8415e3","yes","no",0.05,"2","Stimuli/Stimuli_Bubble/Tools/Chisel_bubble_2.jpg","Tools",1,1.1547,"yes",39,32,"facebook","aphantasia_facebook","Stimuli/Stimuli_Bubble/Tools/Chisel_bubble_2.jpg","aphant","unmasked","2",-2.99573227355399,-0.663351058919615,0.143840569975673
"p_6e29a00f3e8415e3","yes","yes",0.05,"2","Stimuli/Stimuli_Bubble/Clothing/Romper_bubble_2.jpg","Clothing",1,1.646,"yes",39,32,"facebook","aphantasia_facebook","Stimuli/Stimuli_Bubble/Clothing/Romper_bubble_2.jpg","aphant","masked","2",-2.99573227355399,-0.663351058919615,0.498348102254878
"p_6e29a00f3e8415e3","yes","yes",0.15,"2","Stimuli/Stimuli_Bubble/Tools/PipeWrench_bubble_2.jpg","Tools",1,0.0539,"yes",39,32,"facebook","aphantasia_facebook","Stimuli/Stimuli_Bubble/Tools/PipeWrench_bubble_2.jpg","aphant","masked","2",-1.89711998488588,1.2114454845357,-2.92062480106719
"p_6e29a00f3e8415e3","yes","yes",0.025,"2","Stimuli/Stimuli_Bubble/Toys/BaseballBat_bubble_2.jpg","Toys",1,1.2176,"yes",39,32,"facebook","aphantasia_facebook","Stimuli/Stimuli_Bubble/Toys/BaseballBat_bubble_2.jpg","aphant","masked","2",-3.68887945411394,-1.8462159800785,0.196881708125284
"p_6e29a00f3e8415e3","yes","yes",0.15,"2","Stimuli/Stimuli_Bubble/Toys/ToyCar_bubble_2.jpg","Toys",1,0.9757,"yes",39,32,"facebook","aphantasia_facebook","Stimuli/Stimuli_Bubble/Toys/ToyCar_bubble_2.jpg","aphant","masked","2",-1.89711998488588,1.2114454845357,-0.0246001168682327
"p_6e29a00f3e8415e3","yes","no",0.1,"2","Stimuli/Stimuli_Bubble/Clothing/Hoodie_bubble_2.jpg","Clothing",1,0.8357,"yes",39,32,"facebook","aphantasia_facebook","Stimuli/Stimuli_Bubble/Clothing/Hoodie_bubble_2.jpg","aphant","unmasked","2",-2.30258509299405,0.519513862239267,-0.179485581974747
"p_6e29a00f3e8415e3","yes","no",0.075,"2","Stimuli/Stimuli_Bubble/Toys/ActivityGym_bubble_2.jpg","Toys",1,1.0935,"yes",39,32,"facebook","aphantasia_facebook","Stimuli/Stimuli_Bubble/Toys/ActivityGym_bubble_2.jpg","aphant","unmasked","2",-2.59026716544583,0.0285805633768173,0.0893835611346854
"p_6e29a00f3e8415e3","yes","no",0.025,"2","Stimuli/Stimuli_Bubble/Tools/ChopSaw_bubble_2.jpg","Tools",1,2.7354,"yes",39,32,"facebook","aphantasia_facebook","Stimuli/Stimuli_Bubble/Tools/ChopSaw_bubble_2.jpg","aphant","unmasked","2",-3.68887945411394,-1.8462159800785,1.00627767746531
"p_6e29a00f3e8415e3","yes","no",0.05,"2","Stimuli/Stimuli_Bubble/Tools/SafetyGlasses_bubble_2.jpg","Tools",1,2.5567,"yes",39,32,"facebook","aphantasia_facebook","Stimuli/Stimuli_Bubble/Tools/SafetyGlasses_bubble_2.jpg","aphant","unmasked","2",-2.99573227355399,-0.663351058919615,0.938717364435712
"p_6e29a00f3e8415e3","yes","no",0.075,"2","Stimuli/Stimuli_Bubble/Food/Biscuit_bubble_2.jpg","Food",1,1.4582,"yes",39,32,"facebook","aphantasia_facebook","Stimuli/Stimuli_Bubble/Food/Biscuit_bubble_2.jpg","aphant","unmasked","2",-2.59026716544583,0.0285805633768173,0.377202798390193
"p_6e29a00f3e8415e3","yes","no",0.1,"2","Stimuli/Stimuli_Bubble/Toys/Doll_bubble_2.jpg","Toys",1,1.5565,"yes",39,32,"facebook","aphantasia_facebook","Stimuli/Stimuli_Bubble/Toys/Doll_bubble_2.jpg","aphant","unmasked","2",-2.30258509299405,0.519513862239267,0.442439710899526
"p_6e29a00f3e8415e3","yes","yes",0.025,"2","Stimuli/Stimuli_Bubble/Clothing/Sweater_bubble_2.jpg","Clothing",1,2.2406,"yes",39,32,"facebook","aphantasia_facebook","Stimuli/Stimuli_Bubble/Clothing/Sweater_bubble_2.jpg","aphant","masked","2",-3.68887945411394,-1.8462159800785,0.806743687142486
"p_6e29a00f3e8415e3","yes","yes",0.1,"2","Stimuli/Stimuli_Bubble/Toys/SpinningTop_bubble_2.jpg","Toys",1,1.1465,"yes",39,32,"facebook","aphantasia_facebook","Stimuli/Stimuli_Bubble/Toys/SpinningTop_bubble_2.jpg","aphant","masked","2",-2.30258509299405,0.519513862239267,0.136713823315822
"p_6e29a00f3e8415e3","yes","no",0.1,"2","Stimuli/Stimuli_Bubble/Food/Coconut_bubble_2.jpg","Food",1,2.0961,"yes",39,32,"facebook","aphantasia_facebook","Stimuli/Stimuli_Bubble/Food/Coconut_bubble_2.jpg","aphant","unmasked","2",-2.30258509299405,0.519513862239267,0.740078475244378
"p_6e29a00f3e8415e3","yes","no",0.1,"2","Stimuli/Stimuli_Bubble/Food/Cookie_bubble_2.jpg","Food",1,0.9002,"yes",39,32,"facebook","aphantasia_facebook","Stimuli/Stimuli_Bubble/Food/Cookie_bubble_2.jpg","aphant","unmasked","2",-2.30258509299405,0.519513862239267,-0.105138318123305
"p_6e29a00f3e8415e3","yes","no",0.075,"2","Stimuli/Stimuli_Bubble/Clothing/BaseballCap_bubble_2.jpg","Clothing",1,1.113,"yes",39,32,"facebook","aphantasia_facebook","Stimuli/Stimuli_Bubble/Clothing/BaseballCap_bubble_2.jpg","aphant","unmasked","2",-2.59026716544583,0.0285805633768173,0.107059072293408
"p_6e29a00f3e8415e3","yes","no",0.025,"2","Stimuli/Stimuli_Bubble/Clothing/Panties_bubble_2.jpg","Clothing",1,2.1074,"yes",39,32,"facebook","aphantasia_facebook","Stimuli/Stimuli_Bubble/Clothing/Panties_bubble_2.jpg","aphant","unmasked","2",-3.68887945411394,-1.8462159800785,0.74545496018329
"p_6e29a00f3e8415e3","yes","yes",0.075,"2","Stimuli/Stimuli_Bubble/Clothing/Jeans_bubble_2.jpg","Clothing",1,0.6002,"yes",39,32,"facebook","aphantasia_facebook","Stimuli/Stimuli_Bubble/Clothing/Jeans_bubble_2.jpg","aphant","masked","2",-2.59026716544583,0.0285805633768173,-0.51049234597587
"p_6e29a00f3e8415e3","yes","no",0.025,"2","Stimuli/Stimuli_Bubble/Food/Chocolate_bubble_2.jpg","Food",1,1.0112,"yes",39,32,"facebook","aphantasia_facebook","Stimuli/Stimuli_Bubble/Food/Chocolate_bubble_2.jpg","aphant","unmasked","2",-3.68887945411394,-1.8462159800785,0.011137744410456
"p_6e29a00f3e8415e3","yes","yes",0.15,"2","Stimuli/Stimuli_Bubble/Clothing/Gumboots_bubble_2.jpg","Clothing",1,0.8783,"yes",39,32,"facebook","aphantasia_facebook","Stimuli/Stimuli_Bubble/Clothing/Gumboots_bubble_2.jpg","aphant","masked","2",-1.89711998488588,1.2114454845357,-0.129767058059065
"p_6e29a00f3e8415e3","yes","no",0.075,"2","Stimuli/Stimuli_Bubble/Tools/Bolt_bubble_2.jpg","Tools",1,0.9005,"yes",39,32,"facebook","aphantasia_facebook","Stimuli/Stimuli_Bubble/Tools/Bolt_bubble_2.jpg","aphant","unmasked","2",-2.59026716544583,0.0285805633768173,-0.104805114366126
"p_6e29a00f3e8415e3","yes","yes",0.075,"2","Stimuli/Stimuli_Bubble/Tools/Shovel_bubble_2.jpg","Tools",1,1.3177,"yes",39,32,"facebook","aphantasia_facebook","Stimuli/Stimuli_Bubble/Tools/Shovel_bubble_2.jpg","aphant","masked","2",-2.59026716544583,0.0285805633768173,0.27588779256907
"p_6e29a00f3e8415e3","yes","no",0.15,"2","Stimuli/Stimuli_Bubble/Food/Pizza_bubble_2.jpg","Food",1,1.1735,"yes",39,32,"facebook","aphantasia_facebook","Stimuli/Stimuli_Bubble/Food/Pizza_bubble_2.jpg","aphant","unmasked","2",-1.89711998488588,1.2114454845357,0.159990736308941
"p_6e29a00f3e8415e3","yes","no",0.1,"2","Stimuli/Stimuli_Bubble/Clothing/Overalls_bubble_2.jpg","Clothing",1,0.6088,"yes",39,32,"facebook","aphantasia_facebook","Stimuli/Stimuli_Bubble/Clothing/Overalls_bubble_2.jpg","aphant","unmasked","2",-2.30258509299405,0.519513862239267,-0.496265472434661
"p_6e29a00f3e8415e3","yes","yes",0.025,"2","Stimuli/Stimuli_Bubble/Tools/HackSaw_bubble_2.jpg","Tools",1,1.0476,"yes",39,32,"facebook","aphantasia_facebook","Stimuli/Stimuli_Bubble/Tools/HackSaw_bubble_2.jpg","aphant","masked","2",-3.68887945411394,-1.8462159800785,0.0465018336514199
"p_6e29a00f3e8415e3","yes","no",0.05,"2","Stimuli/Stimuli_Bubble/Toys/Bicycle_bubble_2.jpg","Toys",1,0.8713,"yes",39,32,"facebook","aphantasia_facebook","Stimuli/Stimuli_Bubble/Toys/Bicycle_bubble_2.jpg","aphant","unmasked","2",-2.99573227355399,-0.663351058919615,-0.137768929744896
"p_6e29a00f3e8415e3","yes","yes",0.1,"2","Stimuli/Stimuli_Bubble/Tools/Pincers_bubble_2.jpg","Tools",1,0.7171,"yes",39,32,"facebook","aphantasia_facebook","Stimuli/Stimuli_Bubble/Tools/Pincers_bubble_2.jpg","aphant","masked","2",-2.30258509299405,0.519513862239267,-0.332539978093608
"p_6e29a00f3e8415e3","yes","yes",0.025,"2","Stimuli/Stimuli_Bubble/Clothing/Socks_bubble_2.jpg","Clothing",1,2.6299,"yes",39,32,"facebook","aphantasia_facebook","Stimuli/Stimuli_Bubble/Clothing/Socks_bubble_2.jpg","aphant","masked","2",-3.68887945411394,-1.8462159800785,0.9669458226531
"p_6e29a00f3e8415e3","yes","no",0.1,"2","Stimuli/Stimuli_Bubble/Tools/Level_bubble_2.jpg","Tools",1,0.844,"yes",39,32,"facebook","aphantasia_facebook","Stimuli/Stimuli_Bubble/Tools/Level_bubble_2.jpg","aphant","unmasked","2",-2.30258509299405,0.519513862239267,-0.16960278438618
"p_6e29a00f3e8415e3","yes","no",0.15,"2","Stimuli/Stimuli_Bubble/Clothing/Onesie_bubble_2.jpg","Clothing",1,0.6045,"yes",39,32,"facebook","aphantasia_facebook","Stimuli/Stimuli_Bubble/Clothing/Onesie_bubble_2.jpg","aphant","unmasked","2",-1.89711998488588,1.2114454845357,-0.50335360892729
"p_6e29a00f3e8415e3","yes","yes",0.025,"2","Stimuli/Stimuli_Bubble/Food/Melon_bubble_2.jpg","Food",1,2.0921,"yes",39,32,"facebook","aphantasia_facebook","Stimuli/Stimuli_Bubble/Food/Melon_bubble_2.jpg","aphant","masked","2",-3.68887945411394,-1.8462159800785,0.738168346207466
"p_6e29a00f3e8415e3","yes","no",0.1,"2","Stimuli/Stimuli_Bubble/Clothing/Swimsuit_bubble_2.jpg","Clothing",1,0.4871,"yes",39,32,"facebook","aphantasia_facebook","Stimuli/Stimuli_Bubble/Clothing/Swimsuit_bubble_2.jpg","aphant","unmasked","2",-2.30258509299405,0.519513862239267,-0.71928583816964
"p_6e29a00f3e8415e3","yes","yes",0.075,"2","Stimuli/Stimuli_Bubble/Tools/LeafBlower_bubble_2.jpg","Tools",1,0.6455,"yes",39,32,"facebook","aphantasia_facebook","Stimuli/Stimuli_Bubble/Tools/LeafBlower_bubble_2.jpg","aphant","masked","2",-2.59026716544583,0.0285805633768173,-0.43773006869544
"p_6e29a00f3e8415e3","yes","no",0.1,"2","Stimuli/Stimuli_Bubble/Tools/Plunger_bubble_2.jpg","Tools",1,0.6587,"yes",39,32,"facebook","aphantasia_facebook","Stimuli/Stimuli_Bubble/Tools/Plunger_bubble_2.jpg","aphant","unmasked","2",-2.30258509299405,0.519513862239267,-0.41748708333549
"p_6e29a00f3e8415e3","yes","yes",0.05,"2","Stimuli/Stimuli_Bubble/Toys/Dinosaur_bubble_2.jpg","Toys",1,0.8582,"yes",39,32,"facebook","aphantasia_facebook","Stimuli/Stimuli_Bubble/Toys/Dinosaur_bubble_2.jpg","aphant","masked","2",-2.99573227355399,-0.663351058919615,-0.152918106424713
"p_6e29a00f3e8415e3","yes","yes",0.025,"2","Stimuli/Stimuli_Bubble/Tools/GardenHose_bubble_2.jpg","Tools",1,1.0585,"yes",39,32,"facebook","aphantasia_facebook","Stimuli/Stimuli_Bubble/Tools/GardenHose_bubble_2.jpg","aphant","masked","2",-3.68887945411394,-1.8462159800785,0.0568528115927828
"p_6e29a00f3e8415e3","yes","yes",0.05,"2","Stimuli/Stimuli_Bubble/Food/Pumpkin_bubble_2.jpg","Food",1,1.1067,"yes",39,32,"facebook","aphantasia_facebook","Stimuli/Stimuli_Bubble/Food/Pumpkin_bubble_2.jpg","aphant","masked","2",-2.99573227355399,-0.663351058919615,0.101382614288603
"p_6e29a00f3e8415e3","yes","no",0.15,"2","Stimuli/Stimuli_Bubble/Clothing/Hat_bubble_2.jpg","Clothing",1,0.7178,"yes",39,32,"facebook","aphantasia_facebook","Stimuli/Stimuli_Bubble/Clothing/Hat_bubble_2.jpg","aphant","unmasked","2",-1.89711998488588,1.2114454845357,-0.33156430026863
"p_6e29a00f3e8415e3","yes","yes",0.025,"2","Stimuli/Stimuli_Bubble/Toys/Barbie_bubble_2.jpg","Toys",1,0.543,"yes",39,32,"facebook","aphantasia_facebook","Stimuli/Stimuli_Bubble/Toys/Barbie_bubble_2.jpg","aphant","masked","2",-3.68887945411394,-1.8462159800785,-0.610645959048202
"p_6e29a00f3e8415e3","yes","no",0.05,"2","Stimuli/Stimuli_Bubble/Toys/Slinky_bubble_2.jpg","Toys",1,0.618,"yes",39,32,"facebook","aphantasia_facebook","Stimuli/Stimuli_Bubble/Toys/Slinky_bubble_2.jpg","aphant","unmasked","2",-2.99573227355399,-0.663351058919615,-0.481266821524446
"p_6e29a00f3e8415e3","yes","yes",0.15,"2","Stimuli/Stimuli_Bubble/Food/Broccoli_bubble_2.jpg","Food",1,0.5019,"yes",39,32,"facebook","aphantasia_facebook","Stimuli/Stimuli_Bubble/Food/Broccoli_bubble_2.jpg","aphant","masked","2",-1.89711998488588,1.2114454845357,-0.689354382321249
"p_6e29a00f3e8415e3","yes","yes",0.075,"2","Stimuli/Stimuli_Bubble/Clothing/LeatherJacket_bubble_2.jpg","Clothing",1,0.7052,"yes",39,32,"facebook","aphantasia_facebook","Stimuli/Stimuli_Bubble/Clothing/LeatherJacket_bubble_2.jpg","aphant","masked","2",-2.59026716544583,0.0285805633768173,-0.349273828458422
"p_6e29a00f3e8415e3","yes","no",0.15,"2","Stimuli/Stimuli_Bubble/Food/Kiwi_bubble_2.jpg","Food",1,0.5977,"yes",39,32,"facebook","aphantasia_facebook","Stimuli/Stimuli_Bubble/Food/Kiwi_bubble_2.jpg","aphant","unmasked","2",-1.89711998488588,1.2114454845357,-0.514666323151929
"p_6e29a00f3e8415e3","yes","no",0.025,"2","Stimuli/Stimuli_Bubble/Food/Donut_bubble_2.jpg","Food",1,0.6016,"yes",39,32,"facebook","aphantasia_facebook","Stimuli/Stimuli_Bubble/Food/Donut_bubble_2.jpg","aphant","unmasked","2",-3.68887945411394,-1.8462159800785,-0.508162506346507
"p_6e29a00f3e8415e3","yes","yes",0.1,"2","Stimuli/Stimuli_Bubble/Toys/Skateboard_bubble_2.jpg","Toys",1,0.836,"yes",39,32,"facebook","aphantasia_facebook","Stimuli/Stimuli_Bubble/Toys/Skateboard_bubble_2.jpg","aphant","masked","2",-2.30258509299405,0.519513862239267,-0.179126665897435
"p_6e29a00f3e8415e3","yes","yes",0.05,"2","Stimuli/Stimuli_Bubble/Clothing/Robe_bubble_2.jpg","Clothing",1,0.62,"yes",39,32,"facebook","aphantasia_facebook","Stimuli/Stimuli_Bubble/Clothing/Robe_bubble_2.jpg","aphant","masked","2",-2.99573227355399,-0.663351058919615,-0.478035800943
"p_6e29a00f3e8415e3","yes","no",0.05,"2","Stimuli/Stimuli_Bubble/Food/BakedPotato_bubble_2.jpg","Food",1,0.5344,"yes",39,32,"facebook","aphantasia_facebook","Stimuli/Stimuli_Bubble/Food/BakedPotato_bubble_2.jpg","aphant","unmasked","2",-2.99573227355399,-0.663351058919615,-0.626610656759701
"p_6e29a00f3e8415e3","yes","yes",0.1,"2","Stimuli/Stimuli_Bubble/Clothing/Dress_bubble_2.jpg","Clothing",1,0.4772,"yes",39,32,"facebook","aphantasia_facebook","Stimuli/Stimuli_Bubble/Clothing/Dress_bubble_2.jpg","aphant","masked","2",-2.30258509299405,0.519513862239267,-0.739819588758376
"p_6e29a00f3e8415e3","yes","no",0.15,"2","Stimuli/Stimuli_Bubble/Tools/ChainHook_bubble_2.jpg","Tools",1,0.567,"yes",39,32,"facebook","aphantasia_facebook","Stimuli/Stimuli_Bubble/Tools/ChainHook_bubble_2.jpg","aphant","unmasked","2",-1.89711998488588,1.2114454845357,-0.567395975254385
"p_6e29a00f3e8415e3","yes","yes",0.1,"2","Stimuli/Stimuli_Bubble/Tools/PaintRoller_bubble_2.jpg","Tools",1,0.5888,"yes",39,32,"facebook","aphantasia_facebook","Stimuli/Stimuli_Bubble/Tools/PaintRoller_bubble_2.jpg","aphant","masked","2",-2.30258509299405,0.519513862239267,-0.529668711567471
"p_6e29a00f3e8415e3","yes","yes",0.025,"2","Stimuli/Stimuli_Bubble/Food/Eggplant_bubble_2.jpg","Food",1,0.5901,"yes",39,32,"facebook","aphantasia_facebook","Stimuli/Stimuli_Bubble/Food/Eggplant_bubble_2.jpg","aphant","masked","2",-3.68887945411394,-1.8462159800785,-0.527463264919014
"p_6e29a00f3e8415e3","yes","yes",0.15,"2","Stimuli/Stimuli_Bubble/Food/Avocado_bubble_2.jpg","Food",1,0.7006,"yes",39,32,"facebook","aphantasia_facebook","Stimuli/Stimuli_Bubble/Food/Avocado_bubble_2.jpg","aphant","masked","2",-1.89711998488588,1.2114454845357,-0.355818168218751
"p_6e29a00f3e8415e3","yes","yes",0.1,"2","Stimuli/Stimuli_Bubble/Clothing/HaremPants_bubble_2.jpg","Clothing",1,0.5425,"yes",39,32,"facebook","aphantasia_facebook","Stimuli/Stimuli_Bubble/Clothing/HaremPants_bubble_2.jpg","aphant","masked","2",-2.30258509299405,0.519513862239267,-0.611567193567522
"p_6e29a00f3e8415e3","yes","no",0.15,"2","Stimuli/Stimuli_Bubble/Tools/BoltCutter_bubble_2.jpg","Tools",1,0.5882,"yes",39,32,"facebook","aphantasia_facebook","Stimuli/Stimuli_Bubble/Tools/BoltCutter_bubble_2.jpg","aphant","unmasked","2",-1.89711998488588,1.2114454845357,-0.530688252862243
"p_6e29a00f3e8415e3","yes","no",0.1,"2","Stimuli/Stimuli_Bubble/Food/Banana_bubble_2.jpg","Food",1,0.6671,"yes",39,32,"facebook","aphantasia_facebook","Stimuli/Stimuli_Bubble/Food/Banana_bubble_2.jpg","aphant","unmasked","2",-2.30258509299405,0.519513862239267,-0.404815319266667
"p_6e29a00f3e8415e3","yes","no",0.05,"2","Stimuli/Stimuli_Bubble/Clothing/Saree_bubble_2.jpg","Clothing",1,0.9306,"yes",39,32,"facebook","aphantasia_facebook","Stimuli/Stimuli_Bubble/Clothing/Saree_bubble_2.jpg","aphant","unmasked","2",-2.99573227355399,-0.663351058919615,-0.0719257395715889
"p_6e29a00f3e8415e3","yes","yes",0.15,"2","Stimuli/Stimuli_Bubble/Tools/Hammer_bubble_2.jpg","Tools",1,0.7126,"yes",39,32,"facebook","aphantasia_facebook","Stimuli/Stimuli_Bubble/Tools/Hammer_bubble_2.jpg","aphant","masked","2",-1.89711998488588,1.2114454845357,-0.338835025810401
"p_6e29a00f3e8415e3","yes","yes",0.05,"2","Stimuli/Stimuli_Bubble/Tools/Saw_bubble_2.jpg","Tools",1,0.5847,"yes",39,32,"facebook","aphantasia_facebook","Stimuli/Stimuli_Bubble/Tools/Saw_bubble_2.jpg","aphant","masked","2",-2.99573227355399,-0.663351058919615,-0.536656383800512
"p_6e29a00f3e8415e3","yes","no",0.075,"2","Stimuli/Stimuli_Bubble/Clothing/Shirt_bubble_2.jpg","Clothing",1,0.6839,"yes",39,32,"facebook","aphantasia_facebook","Stimuli/Stimuli_Bubble/Clothing/Shirt_bubble_2.jpg","aphant","unmasked","2",-2.59026716544583,0.0285805633768173,-0.379943570878087
"p_6e29a00f3e8415e3","yes","no",0.15,"2","Stimuli/Stimuli_Bubble/Clothing/Shorts_bubble_2.jpg","Clothing",1,0.0933,"yes",39,32,"facebook","aphantasia_facebook","Stimuli/Stimuli_Bubble/Clothing/Shorts_bubble_2.jpg","aphant","unmasked","2",-1.89711998488588,1.2114454845357,-2.37193517112884
"p_6e29a00f3e8415e3","yes","no",0.025,"2","Stimuli/Stimuli_Bubble/Toys/BathToys_bubble_2.jpg","Toys",1,2.9255,"yes",39,32,"facebook","aphantasia_facebook","Stimuli/Stimuli_Bubble/Toys/BathToys_bubble_2.jpg","aphant","unmasked","2",-3.68887945411394,-1.8462159800785,1.07346540624615
"p_6e29a00f3e8415e3","yes","no",0.15,"2","Stimuli/Stimuli_Bubble/Food/Cupcake_bubble_2.jpg","Food",1,0.7074,"yes",39,32,"facebook","aphantasia_facebook","Stimuli/Stimuli_Bubble/Food/Cupcake_bubble_2.jpg","aphant","unmasked","2",-1.89711998488588,1.2114454845357,-0.346159002210757
"p_6e29a00f3e8415e3","yes","no",0.15,"2","Stimuli/Stimuli_Bubble/Toys/StuffedDog_bubble_2.jpg","Toys",1,0.6792,"yes",39,32,"facebook","aphantasia_facebook","Stimuli/Stimuli_Bubble/Toys/StuffedDog_bubble_2.jpg","aphant","unmasked","2",-1.89711998488588,1.2114454845357,-0.386839643984999
"p_6e29a00f3e8415e3","yes","yes",0.15,"1","Stimuli/Stimuli_Bubble/Food/Donut_bubble_1.jpg","Food",1,1.4571,"yes",39,32,"facebook","aphantasia_facebook","Stimuli/Stimuli_Bubble/Food/Donut_bubble_1.jpg","aphant","masked","1",-1.89711998488588,1.2114454845357,0.376448159037672
"p_6e29a00f3e8415e3","yes","yes",0.075,"1","Stimuli/Stimuli_Bubble/Tools/PaperCutter_bubble_1.jpg","Tools",1,0.4287,"yes",39,32,"facebook","aphantasia_facebook","Stimuli/Stimuli_Bubble/Tools/PaperCutter_bubble_1.jpg","aphant","masked","1",-2.59026716544583,0.0285805633768173,-0.846997905378206
"p_6e29a00f3e8415e3","yes","yes",0.05,"1","Stimuli/Stimuli_Bubble/Clothing/SnowCoat_bubble_1.jpg","Clothing",1,0.8552,"yes",39,32,"facebook","aphantasia_facebook","Stimuli/Stimuli_Bubble/Clothing/SnowCoat_bubble_1.jpg","aphant","masked","1",-2.99573227355399,-0.663351058919615,-0.156419919271302
"p_6e29a00f3e8415e3","yes","yes",0.025,"1","Stimuli/Stimuli_Bubble/Toys/StuffedRabbit_bubble_1.jpg","Toys",1,1.268,"yes",39,32,"facebook","aphantasia_facebook","Stimuli/Stimuli_Bubble/Toys/StuffedRabbit_bubble_1.jpg","aphant","masked","1",-3.68887945411394,-1.8462159800785,0.237440856015034
"p_6e29a00f3e8415e3","yes","yes",0.1,"1","Stimuli/Stimuli_Bubble/Clothing/ActivewearShorts_bubble_1.jpg","Clothing",1,0.6248,"yes",39,32,"facebook","aphantasia_facebook","Stimuli/Stimuli_Bubble/Clothing/ActivewearShorts_bubble_1.jpg","aphant","masked","1",-2.30258509299405,0.519513862239267,-0.470323680456661
"p_6e29a00f3e8415e3","yes","yes",0.075,"1","Stimuli/Stimuli_Bubble/Clothing/Boxers_bubble_1.jpg","Clothing",1,0.7731,"yes",39,32,"facebook","aphantasia_facebook","Stimuli/Stimuli_Bubble/Clothing/Boxers_bubble_1.jpg","aphant","masked","1",-2.59026716544583,0.0285805633768173,-0.257346872655708
"p_6e29a00f3e8415e3","yes","no",0.025,"1","Stimuli/Stimuli_Bubble/Clothing/Robe_bubble_1.jpg","Clothing",1,0.5129,"yes",39,32,"facebook","aphantasia_facebook","Stimuli/Stimuli_Bubble/Clothing/Robe_bubble_1.jpg","aphant","unmasked","1",-3.68887945411394,-1.8462159800785,-0.667674384586914
"p_6e29a00f3e8415e3","yes","yes",0.1,"1","Stimuli/Stimuli_Bubble/Clothing/BaseballCap_bubble_1.jpg","Clothing",1,0.5042,"yes",39,32,"facebook","aphantasia_facebook","Stimuli/Stimuli_Bubble/Clothing/BaseballCap_bubble_1.jpg","aphant","masked","1",-2.30258509299405,0.519513862239267,-0.684782264228318
"p_6e29a00f3e8415e3","yes","no",0.1,"1","Stimuli/Stimuli_Bubble/Tools/Snip_bubble_1.jpg","Tools",1,0.5598,"yes",39,32,"facebook","aphantasia_facebook","Stimuli/Stimuli_Bubble/Tools/Snip_bubble_1.jpg","aphant","unmasked","1",-2.30258509299405,0.519513862239267,-0.580175701900784
"p_6e29a00f3e8415e3","yes","no",0.075,"1","Stimuli/Stimuli_Bubble/Clothing/Swimsuit_bubble_1.jpg","Clothing",1,0.6805,"yes",39,32,"facebook","aphantasia_facebook","Stimuli/Stimuli_Bubble/Clothing/Swimsuit_bubble_1.jpg","aphant","unmasked","1",-2.59026716544583,0.0285805633768173,-0.384927456890616
"p_6e29a00f3e8415e3","yes","yes",0.075,"1","Stimuli/Stimuli_Bubble/Toys/SpinningTop_bubble_1.jpg","Toys",1,1.0669,"yes",39,32,"facebook","aphantasia_facebook","Stimuli/Stimuli_Bubble/Toys/SpinningTop_bubble_1.jpg","aphant","masked","1",-2.59026716544583,0.0285805633768173,0.0647572472152785
"p_6e29a00f3e8415e3","yes","yes",0.05,"1","Stimuli/Stimuli_Bubble/Clothing/Blazer_bubble_1.jpg","Clothing",1,0.5127,"yes",39,32,"facebook","aphantasia_facebook","Stimuli/Stimuli_Bubble/Clothing/Blazer_bubble_1.jpg","aphant","masked","1",-2.99573227355399,-0.663351058919615,-0.668064400192482
"p_6e29a00f3e8415e3","yes","no",0.025,"1","Stimuli/Stimuli_Bubble/Clothing/SportsBra_bubble_1.jpg","Clothing",1,0.6004,"yes",39,32,"facebook","aphantasia_facebook","Stimuli/Stimuli_Bubble/Clothing/SportsBra_bubble_1.jpg","aphant","unmasked","1",-3.68887945411394,-1.8462159800785,-0.51015917922283
"p_6e29a00f3e8415e3","yes","yes",0.15,"1","Stimuli/Stimuli_Bubble/Toys/StuffedBear_bubble_1.jpg","Toys",1,0.5572,"yes",39,32,"facebook","aphantasia_facebook","Stimuli/Stimuli_Bubble/Toys/StuffedBear_bubble_1.jpg","aphant","masked","1",-1.89711998488588,1.2114454845357,-0.584831037076486
"p_6e29a00f3e8415e3","yes","no",0.075,"1","Stimuli/Stimuli_Bubble/Clothing/PajamaTop_bubble_1.jpg","Clothing",1,0.6351,"yes",39,32,"facebook","aphantasia_facebook","Stimuli/Stimuli_Bubble/Clothing/PajamaTop_bubble_1.jpg","aphant","unmasked","1",-2.59026716544583,0.0285805633768173,-0.453972812173208
"p_6e29a00f3e8415e3","yes","yes",0.15,"1","Stimuli/Stimuli_Bubble/Clothing/SnowBoots_bubble_1.jpg","Clothing",1,0.5854,"yes",39,32,"facebook","aphantasia_facebook","Stimuli/Stimuli_Bubble/Clothing/SnowBoots_bubble_1.jpg","aphant","masked","1",-1.89711998488588,1.2114454845357,-0.535459904724352
"p_6e29a00f3e8415e3","yes","no",0.05,"1","Stimuli/Stimuli_Bubble/Toys/RockingHorse_bubble_1.jpg","Toys",1,0.5415,"yes",39,32,"facebook","aphantasia_facebook","Stimuli/Stimuli_Bubble/Toys/RockingHorse_bubble_1.jpg","aphant","unmasked","1",-2.99573227355399,-0.663351058919615,-0.613412212541092
"p_6e29a00f3e8415e3","yes","yes",0.025,"1","Stimuli/Stimuli_Bubble/Tools/Bolt_bubble_1.jpg","Tools",1,1.3364,"yes",39,32,"facebook","aphantasia_facebook","Stimuli/Stimuli_Bubble/Tools/Bolt_bubble_1.jpg","aphant","masked","1",-3.68887945411394,-1.8462159800785,0.289979431500464
"p_6e29a00f3e8415e3","yes","no",0.05,"1","Stimuli/Stimuli_Bubble/Food/Carrot_bubble_1.jpg","Food",1,0.7524,"yes",39,32,"facebook","aphantasia_facebook","Stimuli/Stimuli_Bubble/Food/Carrot_bubble_1.jpg","aphant","unmasked","1",-2.99573227355399,-0.663351058919615,-0.284487181555262
"p_6e29a00f3e8415e3","yes","yes",0.025,"1","Stimuli/Stimuli_Bubble/Tools/Pliers_bubble_1.jpg","Tools",1,0.5795,"yes",39,32,"facebook","aphantasia_facebook","Stimuli/Stimuli_Bubble/Tools/Pliers_bubble_1.jpg","aphant","masked","1",-3.68887945411394,-1.8462159800785,-0.545589616202331
"p_6e29a00f3e8415e3","yes","yes",0.1,"1","Stimuli/Stimuli_Bubble/Tools/Saw_bubble_1.jpg","Tools",1,0.7,"yes",39,32,"facebook","aphantasia_facebook","Stimuli/Stimuli_Bubble/Tools/Saw_bubble_1.jpg","aphant","masked","1",-2.30258509299405,0.519513862239267,-0.356674943938732
"p_6e29a00f3e8415e3","yes","yes",0.05,"1","Stimuli/Stimuli_Bubble/Food/Pizza_bubble_1.jpg","Food",1,0.5836,"yes",39,32,"facebook","aphantasia_facebook","Stimuli/Stimuli_Bubble/Food/Pizza_bubble_1.jpg","aphant","masked","1",-2.99573227355399,-0.663351058919615,-0.538539462333506
"p_6e29a00f3e8415e3","yes","yes",0.15,"1","Stimuli/Stimuli_Bubble/Clothing/HaremPants_bubble_1.jpg","Clothing",1,0.677,"yes",39,32,"facebook","aphantasia_facebook","Stimuli/Stimuli_Bubble/Clothing/HaremPants_bubble_1.jpg","aphant","masked","1",-1.89711998488588,1.2114454845357,-0.390084006069862
"p_6e29a00f3e8415e3","yes","no",0.1,"1","Stimuli/Stimuli_Bubble/Food/Potato_bubble_1.jpg","Food",1,0.6928,"yes",39,32,"facebook","aphantasia_facebook","Stimuli/Stimuli_Bubble/Food/Potato_bubble_1.jpg","aphant","unmasked","1",-2.30258509299405,0.519513862239267,-0.367013921733912
"p_6e29a00f3e8415e3","yes","yes",0.1,"1","Stimuli/Stimuli_Bubble/Tools/Screw_bubble_1.jpg","Tools",1,0.5551,"yes",39,32,"facebook","aphantasia_facebook","Stimuli/Stimuli_Bubble/Tools/Screw_bubble_1.jpg","aphant","masked","1",-2.30258509299405,0.519513862239267,-0.588607001286021
"p_6e29a00f3e8415e3","yes","no",0.05,"1","Stimuli/Stimuli_Bubble/Food/Burger_bubble_1.jpg","Food",1,1.4064,"yes",39,32,"facebook","aphantasia_facebook","Stimuli/Stimuli_Bubble/Food/Burger_bubble_1.jpg","aphant","unmasked","1",-2.99573227355399,-0.663351058919615,0.341033247948776
"p_6e29a00f3e8415e3","yes","yes",0.075,"1","Stimuli/Stimuli_Bubble/Food/Biscuit_bubble_1.jpg","Food",1,0.5055,"yes",39,32,"facebook","aphantasia_facebook","Stimuli/Stimuli_Bubble/Food/Biscuit_bubble_1.jpg","aphant","masked","1",-2.59026716544583,0.0285805633768173,-0.682207240521611
"p_6e29a00f3e8415e3","yes","no",0.1,"1","Stimuli/Stimuli_Bubble/Toys/BallInACup_bubble_1.jpg","Toys",1,0.4338,"yes",39,32,"facebook","aphantasia_facebook","Stimuli/Stimuli_Bubble/Toys/BallInACup_bubble_1.jpg","aphant","unmasked","1",-2.30258509299405,0.519513862239267,-0.835171680589363
"p_6e29a00f3e8415e3","yes","no",0.15,"1","Stimuli/Stimuli_Bubble/Clothing/Romper_bubble_1.jpg","Clothing",1,0.4773,"yes",39,32,"facebook","aphantasia_facebook","Stimuli/Stimuli_Bubble/Clothing/Romper_bubble_1.jpg","aphant","unmasked","1",-1.89711998488588,1.2114454845357,-0.739610054970286
"p_6e29a00f3e8415e3","yes","yes",0.075,"1","Stimuli/Stimuli_Bubble/Toys/Balloon_bubble_1.jpg","Toys",1,1.3174,"yes",39,32,"facebook","aphantasia_facebook","Stimuli/Stimuli_Bubble/Toys/Balloon_bubble_1.jpg","aphant","masked","1",-2.59026716544583,0.0285805633768173,0.275660097224455
"p_6e29a00f3e8415e3","yes","no",0.025,"1","Stimuli/Stimuli_Bubble/Food/Bagel_bubble_1.jpg","Food",1,0.4863,"yes",39,32,"facebook","aphantasia_facebook","Stimuli/Stimuli_Bubble/Food/Bagel_bubble_1.jpg","aphant","unmasked","1",-3.68887945411394,-1.8462159800785,-0.720929561572397
"p_6e29a00f3e8415e3","yes","yes",0.075,"1","Stimuli/Stimuli_Bubble/Toys/ToyCar_bubble_1.jpg","Toys",1,0.5935,"yes",39,32,"facebook","aphantasia_facebook","Stimuli/Stimuli_Bubble/Toys/ToyCar_bubble_1.jpg","aphant","masked","1",-2.59026716544583,0.0285805633768173,-0.521718064932414
"p_6e29a00f3e8415e3","yes","no",0.05,"1","Stimuli/Stimuli_Bubble/Tools/LawnMower_bubble_1.jpg","Tools",1,0.8184,"yes",39,32,"facebook","aphantasia_facebook","Stimuli/Stimuli_Bubble/Tools/LawnMower_bubble_1.jpg","aphant","unmasked","1",-2.99573227355399,-0.663351058919615,-0.20040406434472
"p_6e29a00f3e8415e3","yes","no",0.075,"1","Stimuli/Stimuli_Bubble/Tools/Chisel_bubble_1.jpg","Tools",1,0.6215,"yes",39,32,"facebook","aphantasia_facebook","Stimuli/Stimuli_Bubble/Tools/Chisel_bubble_1.jpg","aphant","unmasked","1",-2.59026716544583,0.0285805633768173,-0.475619368031371
"p_6e29a00f3e8415e3","yes","no",0.15,"1","Stimuli/Stimuli_Bubble/Tools/GardenHose_bubble_1.jpg","Tools",1,0.559,"yes",39,32,"facebook","aphantasia_facebook","Stimuli/Stimuli_Bubble/Tools/GardenHose_bubble_1.jpg","aphant","unmasked","1",-1.89711998488588,1.2114454845357,-0.581605805827038
"p_6e29a00f3e8415e3","yes","no",0.1,"1","Stimuli/Stimuli_Bubble/Clothing/Overalls_bubble_1.jpg","Clothing",1,0.6687,"yes",39,32,"facebook","aphantasia_facebook","Stimuli/Stimuli_Bubble/Clothing/Overalls_bubble_1.jpg","aphant","unmasked","1",-2.30258509299405,0.519513862239267,-0.402419749922204
"p_6e29a00f3e8415e3","yes","no",0.05,"1","Stimuli/Stimuli_Bubble/Toys/Lego_bubble_1.jpg","Toys",1,0.7215,"yes",39,32,"facebook","aphantasia_facebook","Stimuli/Stimuli_Bubble/Toys/Lego_bubble_1.jpg","aphant","unmasked","1",-2.99573227355399,-0.663351058919615,-0.326422900768211
"p_6e29a00f3e8415e3","yes","no",0.075,"1","Stimuli/Stimuli_Bubble/Toys/StackingLoops_bubble_1.jpg","Toys",1,0.5506,"yes",39,32,"facebook","aphantasia_facebook","Stimuli/Stimuli_Bubble/Toys/StackingLoops_bubble_1.jpg","aphant","unmasked","1",-2.59026716544583,0.0285805633768173,-0.59674668627363
"p_6e29a00f3e8415e3","yes","no",0.075,"1","Stimuli/Stimuli_Bubble/Clothing/LeatherJacket_bubble_1.jpg","Clothing",1,0.5669,"yes",39,32,"facebook","aphantasia_facebook","Stimuli/Stimuli_Bubble/Clothing/LeatherJacket_bubble_1.jpg","aphant","unmasked","1",-2.59026716544583,0.0285805633768173,-0.567572357651879
"p_6e29a00f3e8415e3","yes","no",0.1,"1","Stimuli/Stimuli_Bubble/Food/Fries_bubble_1.jpg","Food",1,0.5886,"yes",39,32,"facebook","aphantasia_facebook","Stimuli/Stimuli_Bubble/Food/Fries_bubble_1.jpg","aphant","unmasked","1",-2.30258509299405,0.519513862239267,-0.530008443182765
"p_6e29a00f3e8415e3","yes","yes",0.025,"1","Stimuli/Stimuli_Bubble/Toys/StuffedDog_bubble_1.jpg","Toys",1,0.493,"yes",39,32,"facebook","aphantasia_facebook","Stimuli/Stimuli_Bubble/Toys/StuffedDog_bubble_1.jpg","aphant","masked","1",-3.68887945411394,-1.8462159800785,-0.707246104939447
"p_6e29a00f3e8415e3","yes","no",0.15,"1","Stimuli/Stimuli_Bubble/Clothing/PajamaBottoms_bubble_1.jpg","Clothing",1,0.8938,"yes",39,32,"facebook","aphantasia_facebook","Stimuli/Stimuli_Bubble/Clothing/PajamaBottoms_bubble_1.jpg","aphant","unmasked","1",-1.89711998488588,1.2114454845357,-0.112273242482786
"p_6e29a00f3e8415e3","yes","no",0.05,"1","Stimuli/Stimuli_Bubble/Clothing/Shirt_bubble_1.jpg","Clothing",1,0.476,"yes",39,32,"facebook","aphantasia_facebook","Stimuli/Stimuli_Bubble/Clothing/Shirt_bubble_1.jpg","aphant","unmasked","1",-2.99573227355399,-0.663351058919615,-0.742337424750717
"p_6e29a00f3e8415e3","yes","yes",0.15,"1","Stimuli/Stimuli_Bubble/Tools/Grinder_bubble_1.jpg","Tools",1,0.593,"yes",39,32,"facebook","aphantasia_facebook","Stimuli/Stimuli_Bubble/Tools/Grinder_bubble_1.jpg","aphant","masked","1",-1.89711998488588,1.2114454845357,-0.522560879984412
"p_6e29a00f3e8415e3","yes","no",0.1,"1","Stimuli/Stimuli_Bubble/Clothing/Slippers_bubble_1.jpg","Clothing",1,0.5698,"yes",39,32,"facebook","aphantasia_facebook","Stimuli/Stimuli_Bubble/Clothing/Slippers_bubble_1.jpg","aphant","unmasked","1",-2.30258509299405,0.519513862239267,-0.562469856918329
"p_6e29a00f3e8415e3","yes","yes",0.1,"1","Stimuli/Stimuli_Bubble/Toys/Abacus_bubble_1.jpg","Toys",1,0.5565,"yes",39,32,"facebook","aphantasia_facebook","Stimuli/Stimuli_Bubble/Toys/Abacus_bubble_1.jpg","aphant","masked","1",-2.30258509299405,0.519513862239267,-0.586088108266538
"p_6e29a00f3e8415e3","yes","no",0.15,"1","Stimuli/Stimuli_Bubble/Toys/Slinky_bubble_1.jpg","Toys",1,0.5183,"yes",39,32,"facebook","aphantasia_facebook","Stimuli/Stimuli_Bubble/Toys/Slinky_bubble_1.jpg","aphant","unmasked","1",-1.89711998488588,1.2114454845357,-0.657201053786476
"p_6e29a00f3e8415e3","yes","no",0.05,"1","Stimuli/Stimuli_Bubble/Clothing/DenimJacket_bubble_1.jpg","Clothing",1,0.5455,"yes",39,32,"facebook","aphantasia_facebook","Stimuli/Stimuli_Bubble/Clothing/DenimJacket_bubble_1.jpg","aphant","unmasked","1",-2.99573227355399,-0.663351058919615,-0.606052473709012
"p_6e29a00f3e8415e3","yes","yes",0.1,"1","Stimuli/Stimuli_Bubble/Toys/Dinosaur_bubble_1.jpg","Toys",1,0.6374,"yes",39,32,"facebook","aphantasia_facebook","Stimuli/Stimuli_Bubble/Toys/Dinosaur_bubble_1.jpg","aphant","masked","1",-2.30258509299405,0.519513862239267,-0.450357876998901
"p_6e29a00f3e8415e3","yes","no",0.1,"1","Stimuli/Stimuli_Bubble/Tools/Ratchet_bubble_1.jpg","Tools",1,1.4152,"yes",39,32,"facebook","aphantasia_facebook","Stimuli/Stimuli_Bubble/Tools/Ratchet_bubble_1.jpg","aphant","unmasked","1",-2.30258509299405,0.519513862239267,0.347270863863438
"p_6e29a00f3e8415e3","yes","yes",0.15,"1","Stimuli/Stimuli_Bubble/Toys/Skateboard_bubble_1.jpg","Toys",1,0.5338,"yes",39,32,"facebook","aphantasia_facebook","Stimuli/Stimuli_Bubble/Toys/Skateboard_bubble_1.jpg","aphant","masked","1",-1.89711998488588,1.2114454845357,-0.627734042011713
"p_6e29a00f3e8415e3","yes","no",0.075,"1","Stimuli/Stimuli_Bubble/Tools/PaintBrush_bubble_1.jpg","Tools",1,0.5372,"yes",39,32,"facebook","aphantasia_facebook","Stimuli/Stimuli_Bubble/Tools/PaintBrush_bubble_1.jpg","aphant","unmasked","1",-2.59026716544583,0.0285805633768173,-0.621384814333054
"p_6e29a00f3e8415e3","yes","no",0.025,"1","Stimuli/Stimuli_Bubble/Clothing/Hoodie_bubble_1.jpg","Clothing",1,0.4522,"yes",39,32,"facebook","aphantasia_facebook","Stimuli/Stimuli_Bubble/Clothing/Hoodie_bubble_1.jpg","aphant","unmasked","1",-3.68887945411394,-1.8462159800785,-0.793630719138268
"p_6e29a00f3e8415e3","yes","yes",0.05,"1","Stimuli/Stimuli_Bubble/Toys/Rattle_bubble_1.jpg","Toys",1,0.1787,"yes",39,32,"facebook","aphantasia_facebook","Stimuli/Stimuli_Bubble/Toys/Rattle_bubble_1.jpg","aphant","masked","1",-2.99573227355399,-0.663351058919615,-1.72204685681675
"p_6e29a00f3e8415e3","yes","no",0.15,"1","Stimuli/Stimuli_Bubble/Clothing/Panties_bubble_1.jpg","Clothing",1,0.5424,"yes",39,32,"facebook","aphantasia_facebook","Stimuli/Stimuli_Bubble/Clothing/Panties_bubble_1.jpg","aphant","unmasked","1",-1.89711998488588,1.2114454845357,-0.611751542355951
"p_6e29a00f3e8415e3","yes","yes",0.075,"1","Stimuli/Stimuli_Bubble/Tools/Plunger_bubble_1.jpg","Tools",1,0.8545,"yes",39,32,"facebook","aphantasia_facebook","Stimuli/Stimuli_Bubble/Tools/Plunger_bubble_1.jpg","aphant","masked","1",-2.59026716544583,0.0285805633768173,-0.157238776426491
"p_6e29a00f3e8415e3","yes","yes",0.15,"1","Stimuli/Stimuli_Bubble/Food/Cupcake_bubble_1.jpg","Food",1,1.2426,"yes",39,32,"facebook","aphantasia_facebook","Stimuli/Stimuli_Bubble/Food/Cupcake_bubble_1.jpg","aphant","masked","1",-1.89711998488588,1.2114454845357,0.217205958647456
"p_6e29a00f3e8415e3","yes","yes",0.075,"1","Stimuli/Stimuli_Bubble/Clothing/Dress_bubble_1.jpg","Clothing",1,1.3007,"yes",39,32,"facebook","aphantasia_facebook","Stimuli/Stimuli_Bubble/Clothing/Dress_bubble_1.jpg","aphant","masked","1",-2.59026716544583,0.0285805633768173,0.262902581087558
"p_6e29a00f3e8415e3","yes","no",0.05,"1","Stimuli/Stimuli_Bubble/Clothing/Heels_bubble_1.jpg","Clothing",1,0.5927,"yes",39,32,"facebook","aphantasia_facebook","Stimuli/Stimuli_Bubble/Clothing/Heels_bubble_1.jpg","aphant","unmasked","1",-2.99573227355399,-0.663351058919615,-0.523066910188345
"p_6e29a00f3e8415e3","yes","yes",0.1,"1","Stimuli/Stimuli_Bubble/Tools/HackSaw_bubble_1.jpg","Tools",1,0.9524,"yes",39,32,"facebook","aphantasia_facebook","Stimuli/Stimuli_Bubble/Tools/HackSaw_bubble_1.jpg","aphant","masked","1",-2.30258509299405,0.519513862239267,-0.0487701643694293
"p_6e29a00f3e8415e3","yes","yes",0.1,"1","Stimuli/Stimuli_Bubble/Food/Avocado_bubble_1.jpg","Food",1,0.1898,"yes",39,32,"facebook","aphantasia_facebook","Stimuli/Stimuli_Bubble/Food/Avocado_bubble_1.jpg","aphant","masked","1",-2.30258509299405,0.519513862239267,-1.66178439280631
"p_6e29a00f3e8415e3","yes","no",0.1,"1","Stimuli/Stimuli_Bubble/Tools/MeasuringTape_bubble_1.jpg","Tools",1,0.6444,"yes",39,32,"facebook","aphantasia_facebook","Stimuli/Stimuli_Bubble/Tools/MeasuringTape_bubble_1.jpg","aphant","unmasked","1",-2.30258509299405,0.519513862239267,-0.439435627679318
"p_6e29a00f3e8415e3","yes","yes",0.15,"1","Stimuli/Stimuli_Bubble/Tools/PipeWrench_bubble_1.jpg","Tools",1,0.6447,"yes",39,32,"facebook","aphantasia_facebook","Stimuli/Stimuli_Bubble/Tools/PipeWrench_bubble_1.jpg","aphant","masked","1",-1.89711998488588,1.2114454845357,-0.438970186665563
"p_6e29a00f3e8415e3","yes","no",0.025,"1","Stimuli/Stimuli_Bubble/Food/Onion_bubble_1.jpg","Food",1,0.7303,"yes",39,32,"facebook","aphantasia_facebook","Stimuli/Stimuli_Bubble/Food/Onion_bubble_1.jpg","aphant","unmasked","1",-3.68887945411394,-1.8462159800785,-0.314299870356073
"p_6e29a00f3e8415e3","yes","no",0.075,"1","Stimuli/Stimuli_Bubble/Food/Broccoli_bubble_1.jpg","Food",1,0.4105,"yes",39,32,"facebook","aphantasia_facebook","Stimuli/Stimuli_Bubble/Food/Broccoli_bubble_1.jpg","aphant","unmasked","1",-2.59026716544583,0.0285805633768173,-0.890379350089654
"p_6e29a00f3e8415e3","yes","no",0.075,"1","Stimuli/Stimuli_Bubble/Tools/HandTruck_bubble_1.jpg","Tools",1,0.6177,"yes",39,32,"facebook","aphantasia_facebook","Stimuli/Stimuli_Bubble/Tools/HandTruck_bubble_1.jpg","aphant","unmasked","1",-2.59026716544583,0.0285805633768173,-0.481752376280284
"p_6e29a00f3e8415e3","yes","no",0.025,"1","Stimuli/Stimuli_Bubble/Tools/Blowtorch_bubble_1.jpg","Tools",1,0.5588,"yes",39,32,"facebook","aphantasia_facebook","Stimuli/Stimuli_Bubble/Tools/Blowtorch_bubble_1.jpg","aphant","unmasked","1",-3.68887945411394,-1.8462159800785,-0.58196365159933
"p_6e29a00f3e8415e3","yes","yes",0.05,"1","Stimuli/Stimuli_Bubble/Clothing/Onesie_bubble_1.jpg","Clothing",1,0.6209,"yes",39,32,"facebook","aphantasia_facebook","Stimuli/Stimuli_Bubble/Clothing/Onesie_bubble_1.jpg","aphant","masked","1",-2.99573227355399,-0.663351058919615,-0.47658524061129
"p_6e29a00f3e8415e3","yes","no",0.075,"1","Stimuli/Stimuli_Bubble/Food/Melon_bubble_1.jpg","Food",1,0.6502,"yes",39,32,"facebook","aphantasia_facebook","Stimuli/Stimuli_Bubble/Food/Melon_bubble_1.jpg","aphant","unmasked","1",-2.59026716544583,0.0285805633768173,-0.430475271112332
"p_6e29a00f3e8415e3","yes","no",0.05,"1","Stimuli/Stimuli_Bubble/Food/Pumpkin_bubble_1.jpg","Food",1,0.5549,"yes",39,32,"facebook","aphantasia_facebook","Stimuli/Stimuli_Bubble/Food/Pumpkin_bubble_1.jpg","aphant","unmasked","1",-2.99573227355399,-0.663351058919615,-0.588967361650282
"p_6e29a00f3e8415e3","yes","yes",0.075,"1","Stimuli/Stimuli_Bubble/Food/Kiwi_bubble_1.jpg","Food",1,0.3673,"yes",39,32,"facebook","aphantasia_facebook","Stimuli/Stimuli_Bubble/Food/Kiwi_bubble_1.jpg","aphant","masked","1",-2.59026716544583,0.0285805633768173,-1.00157632615652
"p_6e29a00f3e8415e3","yes","no",0.1,"1","Stimuli/Stimuli_Bubble/Clothing/Shorts_bubble_1.jpg","Clothing",1,0.6405,"yes",39,32,"facebook","aphantasia_facebook","Stimuli/Stimuli_Bubble/Clothing/Shorts_bubble_1.jpg","aphant","unmasked","1",-2.30258509299405,0.519513862239267,-0.445506157645348
"p_6e29a00f3e8415e3","yes","yes",0.075,"1","Stimuli/Stimuli_Bubble/Tools/Hammer_bubble_1.jpg","Tools",1,0.5804,"yes",39,32,"facebook","aphantasia_facebook","Stimuli/Stimuli_Bubble/Tools/Hammer_bubble_1.jpg","aphant","masked","1",-2.59026716544583,0.0285805633768173,-0.544037757972104
"p_6e29a00f3e8415e3","yes","no",0.15,"1","Stimuli/Stimuli_Bubble/Food/Omelette_bubble_1.jpg","Food",1,0.4839,"yes",39,32,"facebook","aphantasia_facebook","Stimuli/Stimuli_Bubble/Food/Omelette_bubble_1.jpg","aphant","unmasked","1",-1.89711998488588,1.2114454845357,-0.725877005182864
"p_4a5786612a9365cd","yes","no",0.15,"2","Stimuli/Stimuli_Bubble/Tools/HandRake_bubble_2.jpg","Tools",1,1.2504,"yes",38,32,"facebook","aphantasia_facebook","Stimuli/Stimuli_Bubble/Tools/HandRake_bubble_2.jpg","aphant","unmasked","2",-1.89711998488588,1.2114454845357,0.22346350012513
"p_4a5786612a9365cd","yes","no",0.025,"2","Stimuli/Stimuli_Bubble/Clothing/Raincoat_bubble_2.jpg","Clothing",1,0.9774,"yes",38,32,"facebook","aphantasia_facebook","Stimuli/Stimuli_Bubble/Clothing/Raincoat_bubble_2.jpg","aphant","unmasked","2",-3.68887945411394,-1.8462159800785,-0.0228592941460826
"p_4a5786612a9365cd","yes","yes",0.1,"2","Stimuli/Stimuli_Bubble/Toys/Pinata_bubble_2.jpg","Toys",1,1.8004,"yes",38,32,"facebook","aphantasia_facebook","Stimuli/Stimuli_Bubble/Toys/Pinata_bubble_2.jpg","aphant","masked","2",-2.30258509299405,0.519513862239267,0.58800886243664
"p_4a5786612a9365cd","yes","no",0.05,"2","Stimuli/Stimuli_Bubble/Tools/Flashlight_bubble_2.jpg","Tools",1,1.1246,"yes",38,32,"facebook","aphantasia_facebook","Stimuli/Stimuli_Bubble/Tools/Flashlight_bubble_2.jpg","aphant","unmasked","2",-2.99573227355399,-0.663351058919615,0.117427416875964
"p_4a5786612a9365cd","yes","no",0.1,"2","Stimuli/Stimuli_Bubble/Clothing/Romper_bubble_2.jpg","Clothing",1,0.9349,"yes",38,32,"facebook","aphantasia_facebook","Stimuli/Stimuli_Bubble/Clothing/Romper_bubble_2.jpg","aphant","unmasked","2",-2.30258509299405,0.519513862239267,-0.0673157072848671
"p_4a5786612a9365cd","yes","no",0.075,"2","Stimuli/Stimuli_Bubble/Clothing/Shirt_bubble_2.jpg","Clothing",1,0.784,"yes",38,32,"facebook","aphantasia_facebook","Stimuli/Stimuli_Bubble/Clothing/Shirt_bubble_2.jpg","aphant","unmasked","2",-2.59026716544583,0.0285805633768173,-0.243346258631729
"p_4a5786612a9365cd","yes","no",0.075,"2","Stimuli/Stimuli_Bubble/Toys/Mobile_bubble_2.jpg","Toys",1,1.0246,"yes",38,32,"facebook","aphantasia_facebook","Stimuli/Stimuli_Bubble/Toys/Mobile_bubble_2.jpg","aphant","unmasked","2",-2.59026716544583,0.0285805633768173,0.0243022925229648
"p_4a5786612a9365cd","yes","no",0.1,"2","Stimuli/Stimuli_Bubble/Clothing/Coat_bubble_2.jpg","Clothing",1,0.5529,"yes",38,32,"facebook","aphantasia_facebook","Stimuli/Stimuli_Bubble/Clothing/Coat_bubble_2.jpg","aphant","unmasked","2",-2.30258509299405,0.519513862239267,-0.59257812563825
"p_4a5786612a9365cd","yes","no",0.075,"2","Stimuli/Stimuli_Bubble/Food/Donut_bubble_2.jpg","Food",1,0.8871,"yes",38,32,"facebook","aphantasia_facebook","Stimuli/Stimuli_Bubble/Food/Donut_bubble_2.jpg","aphant","unmasked","2",-2.59026716544583,0.0285805633768173,-0.119797563455596
"p_4a5786612a9365cd","yes","no",0.1,"2","Stimuli/Stimuli_Bubble/Food/Omelette_bubble_2.jpg","Food",1,0.7175,"yes",38,32,"facebook","aphantasia_facebook","Stimuli/Stimuli_Bubble/Food/Omelette_bubble_2.jpg","aphant","unmasked","2",-2.30258509299405,0.519513862239267,-0.331982331348361
"p_4a5786612a9365cd","yes","no",0.025,"2","Stimuli/Stimuli_Bubble/Toys/ActivityGym_bubble_2.jpg","Toys",1,1.7837,"yes",38,32,"facebook","aphantasia_facebook","Stimuli/Stimuli_Bubble/Toys/ActivityGym_bubble_2.jpg","aphant","unmasked","2",-3.68887945411394,-1.8462159800785,0.578689858582121
"p_4a5786612a9365cd","yes","no",0.05,"2","Stimuli/Stimuli_Bubble/Clothing/Sweatpants_bubble_2.jpg","Clothing",1,1.0276,"yes",38,32,"facebook","aphantasia_facebook","Stimuli/Stimuli_Bubble/Clothing/Sweatpants_bubble_2.jpg","aphant","unmasked","2",-2.99573227355399,-0.663351058919615,0.0272259862535915
"p_4a5786612a9365cd","yes","no",0.1,"2","Stimuli/Stimuli_Bubble/Toys/Abacus_bubble_2.jpg","Toys",1,1.6058,"yes",38,32,"facebook","aphantasia_facebook","Stimuli/Stimuli_Bubble/Toys/Abacus_bubble_2.jpg","aphant","unmasked","2",-2.30258509299405,0.519513862239267,0.473622074768446
"p_4a5786612a9365cd","yes","yes",0.1,"2","Stimuli/Stimuli_Bubble/Clothing/Onesie_bubble_2.jpg","Clothing",1,0.5546,"yes",38,32,"facebook","aphantasia_facebook","Stimuli/Stimuli_Bubble/Clothing/Onesie_bubble_2.jpg","aphant","masked","2",-2.30258509299405,0.519513862239267,-0.589508145800459
"p_4a5786612a9365cd","yes","yes",0.075,"2","Stimuli/Stimuli_Bubble/Toys/StuffedDog_bubble_2.jpg","Toys",1,1.5429,"yes",38,32,"facebook","aphantasia_facebook","Stimuli/Stimuli_Bubble/Toys/StuffedDog_bubble_2.jpg","aphant","masked","2",-2.59026716544583,0.0285805633768173,0.433663762466843
"p_4a5786612a9365cd","yes","yes",0.1,"2","Stimuli/Stimuli_Bubble/Clothing/Beanie_bubble_2.jpg","Clothing",1,1.0209,"yes",38,32,"facebook","aphantasia_facebook","Stimuli/Stimuli_Bubble/Clothing/Beanie_bubble_2.jpg","aphant","masked","2",-2.30258509299405,0.519513862239267,0.0206845911928326
"p_4a5786612a9365cd","yes","yes",0.1,"2","Stimuli/Stimuli_Bubble/Tools/LawnMower_bubble_2.jpg","Tools",1,3.2432,"yes",38,32,"facebook","aphantasia_facebook","Stimuli/Stimuli_Bubble/Tools/LawnMower_bubble_2.jpg","aphant","masked","2",-2.30258509299405,0.519513862239267,1.1765604967156
"p_4a5786612a9365cd","yes","yes",0.075,"2","Stimuli/Stimuli_Bubble/Clothing/Swimsuit_bubble_2.jpg","Clothing",1,0.9542,"yes",38,32,"facebook","aphantasia_facebook","Stimuli/Stimuli_Bubble/Clothing/Swimsuit_bubble_2.jpg","aphant","masked","2",-2.59026716544583,0.0285805633768173,-0.0468819859001304
"p_4a5786612a9365cd","yes","no",0.025,"2","Stimuli/Stimuli_Bubble/Toys/NerfGun_bubble_2.jpg","Toys",1,2.3423,"yes",38,32,"facebook","aphantasia_facebook","Stimuli/Stimuli_Bubble/Toys/NerfGun_bubble_2.jpg","aphant","unmasked","2",-3.68887945411394,-1.8462159800785,0.851133352616727
"p_4a5786612a9365cd","yes","no",0.15,"2","Stimuli/Stimuli_Bubble/Toys/Lego_bubble_2.jpg","Toys",1,2.8435,"yes",38,32,"facebook","aphantasia_facebook","Stimuli/Stimuli_Bubble/Toys/Lego_bubble_2.jpg","aphant","unmasked","2",-1.89711998488588,1.2114454845357,1.04503568776472
"p_4a5786612a9365cd","yes","yes",0.15,"2","Stimuli/Stimuli_Bubble/Tools/PipeWrench_bubble_2.jpg","Tools",1,1.3572,"yes",38,32,"facebook","aphantasia_facebook","Stimuli/Stimuli_Bubble/Tools/PipeWrench_bubble_2.jpg","aphant","masked","2",-1.89711998488588,1.2114454845357,0.305423753927938
"p_4a5786612a9365cd","yes","yes",0.05,"2","Stimuli/Stimuli_Bubble/Food/Pear_bubble_2.jpg","Food",1,0.8906,"yes",38,32,"facebook","aphantasia_facebook","Stimuli/Stimuli_Bubble/Food/Pear_bubble_2.jpg","aphant","masked","2",-2.99573227355399,-0.663351058919615,-0.115859886094535
"p_4a5786612a9365cd","yes","no",0.15,"2","Stimuli/Stimuli_Bubble/Toys/DollHouse_bubble_2.jpg","Toys",1,3.0521,"yes",38,32,"facebook","aphantasia_facebook","Stimuli/Stimuli_Bubble/Toys/DollHouse_bubble_2.jpg","aphant","unmasked","2",-1.89711998488588,1.2114454845357,1.11582987828517
"p_4a5786612a9365cd","yes","no",0.05,"2","Stimuli/Stimuli_Bubble/Tools/ChainHook_bubble_2.jpg","Tools",1,1.4586,"yes",38,32,"facebook","aphantasia_facebook","Stimuli/Stimuli_Bubble/Tools/ChainHook_bubble_2.jpg","aphant","unmasked","2",-2.99573227355399,-0.663351058919615,0.377477071567996
"p_4a5786612a9365cd","yes","yes",0.075,"2","Stimuli/Stimuli_Bubble/Clothing/Saree_bubble_2.jpg","Clothing",1,2.8203,"yes",38,32,"facebook","aphantasia_facebook","Stimuli/Stimuli_Bubble/Clothing/Saree_bubble_2.jpg","aphant","masked","2",-2.59026716544583,0.0285805633768173,1.03684326227048
"p_4a5786612a9365cd","yes","no",0.025,"2","Stimuli/Stimuli_Bubble/Toys/Skateboard_bubble_2.jpg","Toys",1,0.8351,"yes",38,32,"facebook","aphantasia_facebook","Stimuli/Stimuli_Bubble/Toys/Skateboard_bubble_2.jpg","aphant","unmasked","2",-3.68887945411394,-1.8462159800785,-0.180203800822953
"p_4a5786612a9365cd","yes","no",0.025,"2","Stimuli/Stimuli_Bubble/Tools/Saw_bubble_2.jpg","Tools",1,0.6175,"yes",38,32,"facebook","aphantasia_facebook","Stimuli/Stimuli_Bubble/Tools/Saw_bubble_2.jpg","aphant","unmasked","2",-3.68887945411394,-1.8462159800785,-0.482076210480005
"p_4a5786612a9365cd","yes","yes",0.025,"2","Stimuli/Stimuli_Bubble/Tools/ClampBar_bubble_2.jpg","Tools",1,0.9101,"yes",38,32,"facebook","aphantasia_facebook","Stimuli/Stimuli_Bubble/Tools/ClampBar_bubble_2.jpg","aphant","masked","2",-3.68887945411394,-1.8462159800785,-0.094200795398827
"p_4a5786612a9365cd","yes","no",0.1,"2","Stimuli/Stimuli_Bubble/Tools/LeafBlower_bubble_2.jpg","Tools",1,1.3177,"yes",38,32,"facebook","aphantasia_facebook","Stimuli/Stimuli_Bubble/Tools/LeafBlower_bubble_2.jpg","aphant","unmasked","2",-2.30258509299405,0.519513862239267,0.27588779256907
"p_4a5786612a9365cd","yes","no",0.075,"2","Stimuli/Stimuli_Bubble/Tools/HandTruck_bubble_2.jpg","Tools",1,1.6177,"yes",38,32,"facebook","aphantasia_facebook","Stimuli/Stimuli_Bubble/Tools/HandTruck_bubble_2.jpg","aphant","unmasked","2",-2.59026716544583,0.0285805633768173,0.481005387353511
"p_4a5786612a9365cd","yes","yes",0.15,"2","Stimuli/Stimuli_Bubble/Food/Kiwi_bubble_2.jpg","Food",1,0.6681,"yes",38,32,"facebook","aphantasia_facebook","Stimuli/Stimuli_Bubble/Food/Kiwi_bubble_2.jpg","aphant","masked","2",-1.89711998488588,1.2114454845357,-0.403317416050705
"p_4a5786612a9365cd","yes","no",0.1,"2","Stimuli/Stimuli_Bubble/Toys/StuffedBear_bubble_2.jpg","Toys",1,1.0513,"yes",38,32,"facebook","aphantasia_facebook","Stimuli/Stimuli_Bubble/Toys/StuffedBear_bubble_2.jpg","aphant","unmasked","2",-2.30258509299405,0.519513862239267,0.0500274935996481
"p_4a5786612a9365cd","yes","no",0.075,"2","Stimuli/Stimuli_Bubble/Clothing/Dress_bubble_2.jpg","Clothing",1,0.6366,"yes",38,32,"facebook","aphantasia_facebook","Stimuli/Stimuli_Bubble/Clothing/Dress_bubble_2.jpg","aphant","unmasked","2",-2.59026716544583,0.0285805633768173,-0.451613764134145
"p_4a5786612a9365cd","yes","yes",0.075,"2","Stimuli/Stimuli_Bubble/Food/Cookie_bubble_2.jpg","Food",1,0.8013,"yes",38,32,"facebook","aphantasia_facebook","Stimuli/Stimuli_Bubble/Food/Cookie_bubble_2.jpg","aphant","masked","2",-2.59026716544583,0.0285805633768173,-0.221519870198112
"p_4a5786612a9365cd","yes","yes",0.1,"2","Stimuli/Stimuli_Bubble/Food/Corn_bubble_2.jpg","Food",1,1.6995,"yes",38,32,"facebook","aphantasia_facebook","Stimuli/Stimuli_Bubble/Food/Corn_bubble_2.jpg","aphant","masked","2",-2.30258509299405,0.519513862239267,0.530334090154034
"p_4a5786612a9365cd","yes","yes",0.075,"2","Stimuli/Stimuli_Bubble/Food/HotDog_bubble_2.jpg","Food",1,0.5199,"yes",38,32,"facebook","aphantasia_facebook","Stimuli/Stimuli_Bubble/Food/HotDog_bubble_2.jpg","aphant","masked","2",-2.59026716544583,0.0285805633768173,-0.654118793592467
"p_4a5786612a9365cd","yes","yes",0.1,"2","Stimuli/Stimuli_Bubble/Food/Apple_bubble_2.jpg","Food",1,0.7174,"yes",38,32,"facebook","aphantasia_facebook","Stimuli/Stimuli_Bubble/Food/Apple_bubble_2.jpg","aphant","masked","2",-2.30258509299405,0.519513862239267,-0.332121713883955
"p_4a5786612a9365cd","yes","no",0.15,"2","Stimuli/Stimuli_Bubble/Food/Chocolate_bubble_2.jpg","Food",1,2.5842,"yes",38,32,"facebook","aphantasia_facebook","Stimuli/Stimuli_Bubble/Food/Chocolate_bubble_2.jpg","aphant","unmasked","2",-1.89711998488588,1.2114454845357,0.949415982305983
"p_4a5786612a9365cd","yes","no",0.1,"2","Stimuli/Stimuli_Bubble/Food/Croissant_bubble_2.jpg","Food",1,0.7772,"yes",38,32,"facebook","aphantasia_facebook","Stimuli/Stimuli_Bubble/Food/Croissant_bubble_2.jpg","aphant","unmasked","2",-2.30258509299405,0.519513862239267,-0.252057561478852
"p_4a5786612a9365cd","yes","no",0.15,"2","Stimuli/Stimuli_Bubble/Tools/Shovel_bubble_2.jpg","Tools",1,0.9177,"yes",38,32,"facebook","aphantasia_facebook","Stimuli/Stimuli_Bubble/Tools/Shovel_bubble_2.jpg","aphant","unmasked","2",-1.89711998488588,1.2114454845357,-0.0858847391571696
"p_4a5786612a9365cd","yes","yes",0.15,"2","Stimuli/Stimuli_Bubble/Clothing/Shorts_bubble_2.jpg","Clothing",1,2.6762,"yes",38,32,"facebook","aphantasia_facebook","Stimuli/Stimuli_Bubble/Clothing/Shorts_bubble_2.jpg","aphant","masked","2",-1.89711998488588,1.2114454845357,0.984397877888751
"p_4a5786612a9365cd","yes","yes",0.025,"2","Stimuli/Stimuli_Bubble/Food/Bread_bubble_2.jpg","Food",1,0.669,"yes",38,32,"facebook","aphantasia_facebook","Stimuli/Stimuli_Bubble/Food/Bread_bubble_2.jpg","aphant","masked","2",-3.68887945411394,-1.8462159800785,-0.401971218853909
"p_4a5786612a9365cd","yes","yes",0.025,"2","Stimuli/Stimuli_Bubble/Toys/ToyCar_bubble_2.jpg","Toys",1,0.7505,"yes",38,32,"facebook","aphantasia_facebook","Stimuli/Stimuli_Bubble/Toys/ToyCar_bubble_2.jpg","aphant","masked","2",-3.68887945411394,-1.8462159800785,-0.28701562790862
"p_4a5786612a9365cd","yes","no",0.05,"2","Stimuli/Stimuli_Bubble/Food/Avocado_bubble_2.jpg","Food",1,0.2021,"yes",38,32,"facebook","aphantasia_facebook","Stimuli/Stimuli_Bubble/Food/Avocado_bubble_2.jpg","aphant","unmasked","2",-2.99573227355399,-0.663351058919615,-1.59899265457256
"p_4a5786612a9365cd","yes","yes",0.05,"2","Stimuli/Stimuli_Bubble/Clothing/Hoodie_bubble_2.jpg","Clothing",1,0.2768,"yes",38,32,"facebook","aphantasia_facebook","Stimuli/Stimuli_Bubble/Clothing/Hoodie_bubble_2.jpg","aphant","masked","2",-2.99573227355399,-0.663351058919615,-1.28446005523862
"p_4a5786612a9365cd","yes","no",0.025,"2","Stimuli/Stimuli_Bubble/Tools/Screw_bubble_2.jpg","Tools",1,0.5838,"yes",38,32,"facebook","aphantasia_facebook","Stimuli/Stimuli_Bubble/Tools/Screw_bubble_2.jpg","aphant","unmasked","2",-3.68887945411394,-1.8462159800785,-0.538196820562123
"p_4a5786612a9365cd","yes","no",0.15,"2","Stimuli/Stimuli_Bubble/Food/Cupcake_bubble_2.jpg","Food",1,0.5254,"yes",38,32,"facebook","aphantasia_facebook","Stimuli/Stimuli_Bubble/Food/Cupcake_bubble_2.jpg","aphant","unmasked","2",-1.89711998488588,1.2114454845357,-0.643595401730698
"p_4a5786612a9365cd","yes","no",0.025,"2","Stimuli/Stimuli_Bubble/Food/Burger_bubble_2.jpg","Food",1,0.5343,"yes",38,32,"facebook","aphantasia_facebook","Stimuli/Stimuli_Bubble/Food/Burger_bubble_2.jpg","aphant","unmasked","2",-3.68887945411394,-1.8462159800785,-0.626797800018411
"p_4a5786612a9365cd","yes","no",0.15,"2","Stimuli/Stimuli_Bubble/Clothing/DenimJacket_bubble_2.jpg","Clothing",1,0.7869,"yes",38,32,"facebook","aphantasia_facebook","Stimuli/Stimuli_Bubble/Clothing/DenimJacket_bubble_2.jpg","aphant","unmasked","2",-1.89711998488588,1.2114454845357,-0.239654103441199
"p_4a5786612a9365cd","yes","yes",0.075,"2","Stimuli/Stimuli_Bubble/Toys/Doll_bubble_2.jpg","Toys",1,1.2013,"yes",38,32,"facebook","aphantasia_facebook","Stimuli/Stimuli_Bubble/Toys/Doll_bubble_2.jpg","aphant","masked","2",-2.59026716544583,0.0285805633768173,0.183404303745192
"p_4a5786612a9365cd","yes","yes",0.15,"2","Stimuli/Stimuli_Bubble/Clothing/Overalls_bubble_2.jpg","Clothing",1,0.5009,"yes",38,32,"facebook","aphantasia_facebook","Stimuli/Stimuli_Bubble/Clothing/Overalls_bubble_2.jpg","aphant","masked","2",-1.89711998488588,1.2114454845357,-0.691348798618566
"p_4a5786612a9365cd","yes","no",0.15,"2","Stimuli/Stimuli_Bubble/Tools/Level_bubble_2.jpg","Tools",1,2.6505,"yes",38,32,"facebook","aphantasia_facebook","Stimuli/Stimuli_Bubble/Tools/Level_bubble_2.jpg","aphant","unmasked","2",-1.89711998488588,1.2114454845357,0.974748301445724
"p_4a5786612a9365cd","yes","yes",0.15,"2","Stimuli/Stimuli_Bubble/Toys/SkippingRope_bubble_2.jpg","Toys",1,1.6085,"yes",38,32,"facebook","aphantasia_facebook","Stimuli/Stimuli_Bubble/Toys/SkippingRope_bubble_2.jpg","aphant","masked","2",-1.89711998488588,1.2114454845357,0.475302067696944
"p_4a5786612a9365cd","yes","yes",0.025,"2","Stimuli/Stimuli_Bubble/Food/Onion_bubble_2.jpg","Food",1,1.2721,"yes",38,32,"facebook","aphantasia_facebook","Stimuli/Stimuli_Bubble/Food/Onion_bubble_2.jpg","aphant","masked","2",-3.68887945411394,-1.8462159800785,0.240669078180028
"p_4a5786612a9365cd","yes","yes",0.025,"2","Stimuli/Stimuli_Bubble/Clothing/Sweater_bubble_2.jpg","Clothing",1,0.0342,"yes",38,32,"facebook","aphantasia_facebook","Stimuli/Stimuli_Bubble/Clothing/Sweater_bubble_2.jpg","aphant","masked","2",-3.68887945411394,-1.8462159800785,-3.37552963491358
"p_4a5786612a9365cd","yes","no",0.15,"2","Stimuli/Stimuli_Bubble/Toys/StuffedHippo_bubble_2.jpg","Toys",1,0.5208,"yes",38,32,"facebook","aphantasia_facebook","Stimuli/Stimuli_Bubble/Toys/StuffedHippo_bubble_2.jpg","aphant","unmasked","2",-1.89711998488588,1.2114454845357,-0.652389188087777
"p_4a5786612a9365cd","yes","yes",0.15,"2","Stimuli/Stimuli_Bubble/Clothing/Gumboots_bubble_2.jpg","Clothing",1,0.6343,"yes",38,32,"facebook","aphantasia_facebook","Stimuli/Stimuli_Bubble/Clothing/Gumboots_bubble_2.jpg","aphant","masked","2",-1.89711998488588,1.2114454845357,-0.455233250342286
"p_4a5786612a9365cd","yes","yes",0.025,"2","Stimuli/Stimuli_Bubble/Clothing/SnowCoat_bubble_2.jpg","Clothing",1,2.7345,"yes",38,32,"facebook","aphantasia_facebook","Stimuli/Stimuli_Bubble/Clothing/SnowCoat_bubble_2.jpg","aphant","masked","2",-3.68887945411394,-1.8462159800785,1.00594860380469
"p_4a5786612a9365cd","yes","no",0.075,"2","Stimuli/Stimuli_Bubble/Food/Banana_bubble_2.jpg","Food",1,0.6445,"yes",38,32,"facebook","aphantasia_facebook","Stimuli/Stimuli_Bubble/Food/Banana_bubble_2.jpg","aphant","unmasked","2",-2.59026716544583,0.0285805633768173,-0.439280456602895
"p_4a5786612a9365cd","yes","yes",0.15,"2","Stimuli/Stimuli_Bubble/Tools/Ratchet_bubble_2.jpg","Tools",1,0.5598,"yes",38,32,"facebook","aphantasia_facebook","Stimuli/Stimuli_Bubble/Tools/Ratchet_bubble_2.jpg","aphant","masked","2",-1.89711998488588,1.2114454845357,-0.580175701900784
"p_4a5786612a9365cd","yes","no",0.1,"2","Stimuli/Stimuli_Bubble/Tools/PaintBrush_bubble_2.jpg","Tools",1,1.234,"yes",38,32,"facebook","aphantasia_facebook","Stimuli/Stimuli_Bubble/Tools/PaintBrush_bubble_2.jpg","aphant","unmasked","2",-2.30258509299405,0.519513862239267,0.210260925483196
"p_4a5786612a9365cd","yes","yes",0.15,"2","Stimuli/Stimuli_Bubble/Food/Bagel_bubble_2.jpg","Food",1,1.9741,"yes",38,32,"facebook","aphantasia_facebook","Stimuli/Stimuli_Bubble/Food/Bagel_bubble_2.jpg","aphant","masked","2",-1.89711998488588,1.2114454845357,0.680112598289485
"p_4a5786612a9365cd","yes","yes",0.15,"2","Stimuli/Stimuli_Bubble/Tools/BlacksmithTongs_bubble_2.jpg","Tools",1,1.3738,"yes",38,32,"facebook","aphantasia_facebook","Stimuli/Stimuli_Bubble/Tools/BlacksmithTongs_bubble_2.jpg","aphant","masked","2",-1.89711998488588,1.2114454845357,0.317580622797644
"p_4a5786612a9365cd","yes","yes",0.05,"2","Stimuli/Stimuli_Bubble/Clothing/HaremPants_bubble_2.jpg","Clothing",1,0.6501,"yes",38,32,"facebook","aphantasia_facebook","Stimuli/Stimuli_Bubble/Clothing/HaremPants_bubble_2.jpg","aphant","masked","2",-2.99573227355399,-0.663351058919615,-0.430629081771714
"p_4a5786612a9365cd","yes","yes",0.05,"2","Stimuli/Stimuli_Bubble/Food/Eggplant_bubble_2.jpg","Food",1,0.2122,"yes",38,32,"facebook","aphantasia_facebook","Stimuli/Stimuli_Bubble/Food/Eggplant_bubble_2.jpg","aphant","masked","2",-2.99573227355399,-0.663351058919615,-1.55022605280225
"p_4a5786612a9365cd","yes","yes",0.15,"2","Stimuli/Stimuli_Bubble/Food/Biscuit_bubble_2.jpg","Food",1,0.5204,"yes",38,32,"facebook","aphantasia_facebook","Stimuli/Stimuli_Bubble/Food/Biscuit_bubble_2.jpg","aphant","masked","2",-1.89711998488588,1.2114454845357,-0.653157532343787
"p_4a5786612a9365cd","yes","no",0.075,"2","Stimuli/Stimuli_Bubble/Tools/PaintTray_bubble_2.jpg","Tools",1,1.894,"yes",38,32,"facebook","aphantasia_facebook","Stimuli/Stimuli_Bubble/Tools/PaintTray_bubble_2.jpg","aphant","unmasked","2",-2.59026716544583,0.0285805633768173,0.638690994763886
"p_4a5786612a9365cd","yes","yes",0.075,"2","Stimuli/Stimuli_Bubble/Clothing/Boxers_bubble_2.jpg","Clothing",1,0.4338,"yes",38,32,"facebook","aphantasia_facebook","Stimuli/Stimuli_Bubble/Clothing/Boxers_bubble_2.jpg","aphant","masked","2",-2.59026716544583,0.0285805633768173,-0.835171680589363
"p_4a5786612a9365cd","yes","yes",0.1,"2","Stimuli/Stimuli_Bubble/Clothing/SportsBra_bubble_2.jpg","Clothing",1,0.494,"yes",38,32,"facebook","aphantasia_facebook","Stimuli/Stimuli_Bubble/Clothing/SportsBra_bubble_2.jpg","aphant","masked","2",-2.30258509299405,0.519513862239267,-0.705219761794215
"p_4a5786612a9365cd","yes","no",0.05,"2","Stimuli/Stimuli_Bubble/Clothing/FlipFlop_bubble_2.jpg","Clothing",1,0.539,"yes",38,32,"facebook","aphantasia_facebook","Stimuli/Stimuli_Bubble/Clothing/FlipFlop_bubble_2.jpg","aphant","unmasked","2",-2.99573227355399,-0.663351058919615,-0.61803970807314
"p_4a5786612a9365cd","yes","yes",0.075,"2","Stimuli/Stimuli_Bubble/Tools/Plunger_bubble_2.jpg","Tools",1,1.0542,"yes",38,32,"facebook","aphantasia_facebook","Stimuli/Stimuli_Bubble/Tools/Plunger_bubble_2.jpg","aphant","masked","2",-2.59026716544583,0.0285805633768173,0.0527821854389695
"p_4a5786612a9365cd","yes","no",0.15,"2","Stimuli/Stimuli_Bubble/Clothing/Skirt_bubble_2.jpg","Clothing",1,0.5681,"yes",38,32,"facebook","aphantasia_facebook","Stimuli/Stimuli_Bubble/Clothing/Skirt_bubble_2.jpg","aphant","unmasked","2",-1.89711998488588,1.2114454845357,-0.565457819419056
"p_4a5786612a9365cd","yes","yes",0.1,"2","Stimuli/Stimuli_Bubble/Food/Melon_bubble_2.jpg","Food",1,0.373,"yes",38,32,"facebook","aphantasia_facebook","Stimuli/Stimuli_Bubble/Food/Melon_bubble_2.jpg","aphant","masked","2",-2.30258509299405,0.519513862239267,-0.986176859338322
"p_4a5786612a9365cd","yes","no",0.05,"2","Stimuli/Stimuli_Bubble/Food/Cauliflower_bubble_2.jpg","Food",1,0.651,"yes",38,32,"facebook","aphantasia_facebook","Stimuli/Stimuli_Bubble/Food/Cauliflower_bubble_2.jpg","aphant","unmasked","2",-2.99573227355399,-0.663351058919615,-0.429245636773568
"p_4a5786612a9365cd","yes","yes",0.025,"2","Stimuli/Stimuli_Bubble/Clothing/Panties_bubble_2.jpg","Clothing",1,0.9723,"yes",38,32,"facebook","aphantasia_facebook","Stimuli/Stimuli_Bubble/Clothing/Panties_bubble_2.jpg","aphant","masked","2",-3.68887945411394,-1.8462159800785,-0.0280908801665256
"p_4a5786612a9365cd","yes","no",0.15,"2","Stimuli/Stimuli_Bubble/Clothing/SnowBoots_bubble_2.jpg","Clothing",1,0.1403,"yes",38,32,"facebook","aphantasia_facebook","Stimuli/Stimuli_Bubble/Clothing/SnowBoots_bubble_2.jpg","aphant","unmasked","2",-1.89711998488588,1.2114454845357,-1.96397229187372
"p_4a5786612a9365cd","yes","no",0.025,"2","Stimuli/Stimuli_Bubble/Food/Potato_bubble_2.jpg","Food",1,0.2056,"yes",38,32,"facebook","aphantasia_facebook","Stimuli/Stimuli_Bubble/Food/Potato_bubble_2.jpg","aphant","unmasked","2",-3.68887945411394,-1.8462159800785,-1.58182274540113
"p_4a5786612a9365cd","yes","no",0.1,"2","Stimuli/Stimuli_Bubble/Clothing/Jeans_bubble_2.jpg","Clothing",1,0.4746,"yes",38,32,"facebook","aphantasia_facebook","Stimuli/Stimuli_Bubble/Clothing/Jeans_bubble_2.jpg","aphant","unmasked","2",-2.30258509299405,0.519513862239267,-0.745282934980474
"p_4a5786612a9365cd","yes","no",0.05,"2","Stimuli/Stimuli_Bubble/Clothing/Slippers_bubble_2.jpg","Clothing",1,1.2342,"yes",38,32,"facebook","aphantasia_facebook","Stimuli/Stimuli_Bubble/Clothing/Slippers_bubble_2.jpg","aphant","unmasked","2",-2.99573227355399,-0.663351058919615,0.210422986904829
"p_4a5786612a9365cd","yes","no",0.1,"1","Stimuli/Stimuli_Bubble/Toys/Bicycle_bubble_1.jpg","Toys",1,0.8853,"yes",38,32,"facebook","aphantasia_facebook","Stimuli/Stimuli_Bubble/Toys/Bicycle_bubble_1.jpg","aphant","unmasked","1",-2.30258509299405,0.519513862239267,-0.121828708365134
"p_4a5786612a9365cd","yes","no",0.15,"1","Stimuli/Stimuli_Bubble/Clothing/Scarf_bubble_1.jpg","Clothing",1,0.993,"yes",38,32,"facebook","aphantasia_facebook","Stimuli/Stimuli_Bubble/Clothing/Scarf_bubble_1.jpg","aphant","unmasked","1",-1.89711998488588,1.2114454845357,-0.00702461493696447
"p_4a5786612a9365cd","yes","no",0.1,"1","Stimuli/Stimuli_Bubble/Toys/StuffedHippo_bubble_1.jpg","Toys",1,1.0183,"yes",38,32,"facebook","aphantasia_facebook","Stimuli/Stimuli_Bubble/Toys/StuffedHippo_bubble_1.jpg","aphant","unmasked","1",-2.30258509299405,0.519513862239267,0.0181345701954827
