"participant","bubbled","back_masked","SOA","block_num","trial_image","category","correct","rt","aphantasia","age","vviq_standard","source","source_folder","item","group","mask","block","soa_log","soa_s"
"p_359aaf68a73a6a7f","yes","yes",0.025,"1","Stimuli/Stimuli_Bubble/Tools/File_bubble_1.jpg","Tools",0,0.2722,"yes",55,32,"facebook","aphantasia_facebook","Stimuli/Stimuli_Bubble/Tools/File_bubble_1.jpg","aphant","masked","1",-3.68887945411394,-1.6210105935995
"p_359aaf68a73a6a7f","yes","yes",0.05,"1","Stimuli/Stimuli_Bubble/Toys/StuffedOwl_bubble_1.jpg","Toys",0,0.7418,"yes",55,32,"facebook","aphantasia_facebook","Stimuli/Stimuli_Bubble/Toys/StuffedOwl_bubble_1.jpg","aphant","masked","1",-2.99573227355399,-0.490586918822914
"p_359aaf68a73a6a7f","yes","yes",0.075,"1","Stimuli/Stimuli_Bubble/Clothing/SnowCoat_bubble_1.jpg","Clothing",1,2.8004,"yes",55,32,"facebook","aphantasia_facebook","Stimuli/Stimuli_Bubble/Clothing/SnowCoat_bubble_1.jpg","aphant","masked","1",-2.59026716544583,0.170668540848797
"p_359aaf68a73a6a7f","yes","yes",0.15,"1","Stimuli/Stimuli_Bubble/Food/Corn_bubble_1.jpg","Food",0,0.6294,"yes",55,32,"facebook","aphantasia_facebook","Stimuli/Stimuli_Bubble/Food/Corn_bubble_1.jpg","aphant","masked","1",-1.89711998488588,1.30109221562538
"p_359aaf68a73a6a7f","yes","no",0.1,"1","Stimuli/Stimuli_Bubble/Toys/StackingLoops_bubble_1.jpg","Toys",0,1.789,"yes",55,32,"facebook","aphantasia_facebook","Stimuli/Stimuli_Bubble/Toys/StackingLoops_bubble_1.jpg","aphant","unmasked","1",-2.30258509299405,0.639836755953673
"p_359aaf68a73a6a7f","yes","no",0.075,"1","Stimuli/Stimuli_Bubble/Tools/Bolt_bubble_1.jpg","Tools",0,0.8764,"yes",55,32,"facebook","aphantasia_facebook","Stimuli/Stimuli_Bubble/Tools/Bolt_bubble_1.jpg","aphant","unmasked","1",-2.59026716544583,0.170668540848797
"p_359aaf68a73a6a7f","yes","no",0.1,"1","Stimuli/Stimuli_Bubble/Food/Cupcake_bubble_1.jpg","Food",0,2.7179,"yes",55,32,"facebook","aphantasia_facebook","Stimuli/Stimuli_Bubble/Food/Cupcake_bubble_1.jpg","aphant","unmasked","1",-2.30258509299405,0.639836755953673
"p_359aaf68a73a6a7f","yes","yes",0.075,"1","Stimuli/Stimuli_Bubble/Tools/Axe_bubble_1.jpg","Tools",1,0.6841,"yes",55,32,"facebook","aphantasia_facebook","Stimuli/Stimuli_Bubble/Tools/Axe_bubble_1.jpg","aphant","masked","1",-2.59026716544583,0.170668540848797
"p_359aaf68a73a6a7f","yes","yes",0.1,"1","Stimuli/Stimuli_Bubble/Tools/ServiceCart_bubble_1.jpg","Tools",1,2.1607,"yes",55,32,"facebook","aphantasia_facebook","Stimuli/Stimuli_Bubble/Tools/ServiceCart_bubble_1.jpg","aphant","masked","1",-2.30258509299405,0.639836755953673
"p_359aaf68a73a6a7f","yes","no",0.05,"1","Stimuli/Stimuli_Bubble/Tools/PipeWrench_bubble_1.jpg","Tools",1,1.2294,"yes",55,32,"facebook","aphantasia_facebook","Stimuli/Stimuli_Bubble/Tools/PipeWrench_bubble_1.jpg","aphant","unmasked","1",-2.99573227355399,-0.490586918822914
"p_359aaf68a73a6a7f","yes","yes",0.075,"1","Stimuli/Stimuli_Bubble/Food/Cake_bubble_1.jpg","Food",0,3.0178,"yes",55,32,"facebook","aphantasia_facebook","Stimuli/Stimuli_Bubble/Food/Cake_bubble_1.jpg","aphant","masked","1",-2.59026716544583,0.170668540848797
"p_359aaf68a73a6a7f","yes","yes",0.1,"1","Stimuli/Stimuli_Bubble/Tools/PaintTray_bubble_1.jpg","Tools",0,0.2263,"yes",55,32,"facebook","aphantasia_facebook","Stimuli/Stimuli_Bubble/Tools/PaintTray_bubble_1.jpg","aphant","masked","1",-2.30258509299405,0.639836755953673
"p_359aaf68a73a6a7f","yes","yes",0.025,"1","Stimuli/Stimuli_Bubble/Tools/Saw_bubble_1.jpg","Tools",0,,"yes",55,32,"facebook","aphantasia_facebook","Stimuli/Stimuli_Bubble/Tools/Saw_bubble_1.jpg","aphant","masked","1",-3.68887945411394,-1.6210105935995
"p_359aaf68a73a6a7f","yes","no",0.15,"1","Stimuli/Stimuli_Bubble/Food/Pizza_bubble_1.jpg","Food",1,0.8676,"yes",55,32,"facebook","aphantasia_facebook","Stimuli/Stimuli_Bubble/Food/Pizza_bubble_1.jpg","aphant","unmasked","1",-1.89711998488588,1.30109221562538
"p_359aaf68a73a6a7f","yes","yes",0.025,"1","Stimuli/Stimuli_Bubble/Food/Lemon_bubble_1.jpg","Food",0,2.096,"yes",55,32,"facebook","aphantasia_facebook","Stimuli/Stimuli_Bubble/Food/Lemon_bubble_1.jpg","aphant","masked","1",-3.68887945411394,-1.6210105935995
"p_359aaf68a73a6a7f","yes","yes",0.05,"1","Stimuli/Stimuli_Bubble/Clothing/Onesie_bubble_1.jpg","Clothing",1,0.5408,"yes",55,32,"facebook","aphantasia_facebook","Stimuli/Stimuli_Bubble/Clothing/Onesie_bubble_1.jpg","aphant","masked","1",-2.99573227355399,-0.490586918822914
"p_359aaf68a73a6a7f","yes","no",0.025,"1","Stimuli/Stimuli_Bubble/Toys/DollHouse_bubble_1.jpg","Toys",0,0.6851,"yes",55,32,"facebook","aphantasia_facebook","Stimuli/Stimuli_Bubble/Toys/DollHouse_bubble_1.jpg","aphant","unmasked","1",-3.68887945411394,-1.6210105935995
"p_359aaf68a73a6a7f","yes","no",0.075,"1","Stimuli/Stimuli_Bubble/Clothing/Skirt_bubble_1.jpg","Clothing",1,0.6352,"yes",55,32,"facebook","aphantasia_facebook","Stimuli/Stimuli_Bubble/Clothing/Skirt_bubble_1.jpg","aphant","unmasked","1",-2.59026716544583,0.170668540848797
"p_359aaf68a73a6a7f","yes","yes",0.15,"1","Stimuli/Stimuli_Bubble/Toys/RockingHorse_bubble_1.jpg","Toys",0,2.3856,"yes",55,32,"facebook","aphantasia_facebook","Stimuli/Stimuli_Bubble/Toys/RockingHorse_bubble_1.jpg","aphant","masked","1",-1.89711998488588,1.30109221562538
"p_359aaf68a73a6a7f","yes","yes",0.05,"1","Stimuli/Stimuli_Bubble/Food/Cauliflower_bubble_1.jpg","Food",0,3.9186,"yes",55,32,"facebook","aphantasia_facebook","Stimuli/Stimuli_Bubble/Food/Cauliflower_bubble_1.jpg","aphant","masked","1",-2.99573227355399,-0.490586918822914
"p_359aaf68a73a6a7f","yes","yes",0.05,"1","Stimuli/Stimuli_Bubble/Food/Avocado_bubble_1.jpg","Food",0,2.4678,"yes",55,32,"facebook","aphantasia_facebook","Stimuli/Stimuli_Bubble/Food/Avocado_bubble_1.jpg","aphant","masked","1",-2.99573227355399,-0.490586918822914
"p_359aaf68a73a6a7f","yes","no",0.05,"1","Stimuli/Stimuli_Bubble/Toys/StuffedBear_bubble_1.jpg","Toys",0,1.8841,"yes",55,32,"facebook","aphantasia_facebook","Stimuli/Stimuli_Bubble/Toys/StuffedBear_bubble_1.jpg","aphant","unmasked","1",-2.99573227355399,-0.490586918822914
"p_359aaf68a73a6a7f","yes","no",0.075,"1","Stimuli/Stimuli_Bubble/Toys/Doll_bubble_1.jpg","Toys",1,0.1116,"yes",55,32,"facebook","aphantasia_facebook","Stimuli/Stimuli_Bubble/Toys/Doll_bubble_1.jpg","aphant","unmasked","1",-2.59026716544583,0.170668540848797
"p_359aaf68a73a6a7f","yes","no",0.1,"1","Stimuli/Stimuli_Bubble/Clothing/Jeans_bubble_1.jpg","Clothing",1,0.8889,"yes",55,32,"facebook","aphantasia_facebook","Stimuli/Stimuli_Bubble/Clothing/Jeans_bubble_1.jpg","aphant","unmasked","1",-2.30258509299405,0.639836755953673
"p_359aaf68a73a6a7f","yes","no",0.075,"1","Stimuli/Stimuli_Bubble/Toys/Float_bubble_1.jpg","Toys",1,0.7432,"yes",55,32,"facebook","aphantasia_facebook","Stimuli/Stimuli_Bubble/Toys/Float_bubble_1.jpg","aphant","unmasked","1",-2.59026716544583,0.170668540848797
"p_359aaf68a73a6a7f","yes","yes",0.025,"1","Stimuli/Stimuli_Bubble/Clothing/SportsBra_bubble_1.jpg","Clothing",1,1.4439,"yes",55,32,"facebook","aphantasia_facebook","Stimuli/Stimuli_Bubble/Clothing/SportsBra_bubble_1.jpg","aphant","masked","1",-3.68887945411394,-1.6210105935995
"p_359aaf68a73a6a7f","yes","yes",0.075,"1","Stimuli/Stimuli_Bubble/Toys/Blanket_bubble_1.jpg","Toys",1,8.7331,"yes",55,32,"facebook","aphantasia_facebook","Stimuli/Stimuli_Bubble/Toys/Blanket_bubble_1.jpg","aphant","masked","1",-2.59026716544583,0.170668540848797
"p_359aaf68a73a6a7f","yes","no",0.075,"1","Stimuli/Stimuli_Bubble/Food/Croissant_bubble_1.jpg","Food",1,0.9859,"yes",55,32,"facebook","aphantasia_facebook","Stimuli/Stimuli_Bubble/Food/Croissant_bubble_1.jpg","aphant","unmasked","1",-2.59026716544583,0.170668540848797
"p_359aaf68a73a6a7f","yes","no",0.075,"1","Stimuli/Stimuli_Bubble/Food/IceCream_bubble_1.jpg","Food",1,0.4455,"yes",55,32,"facebook","aphantasia_facebook","Stimuli/Stimuli_Bubble/Food/IceCream_bubble_1.jpg","aphant","unmasked","1",-2.59026716544583,0.170668540848797
"p_359aaf68a73a6a7f","yes","yes",0.025,"1","Stimuli/Stimuli_Bubble/Food/Cookie_bubble_1.jpg","Food",0,3.2296,"yes",55,32,"facebook","aphantasia_facebook","Stimuli/Stimuli_Bubble/Food/Cookie_bubble_1.jpg","aphant","masked","1",-3.68887945411394,-1.6210105935995
"p_359aaf68a73a6a7f","yes","no",0.025,"1","Stimuli/Stimuli_Bubble/Food/Donut_bubble_1.jpg","Food",1,4.7752,"yes",55,32,"facebook","aphantasia_facebook","Stimuli/Stimuli_Bubble/Food/Donut_bubble_1.jpg","aphant","unmasked","1",-3.68887945411394,-1.6210105935995
"p_359aaf68a73a6a7f","yes","no",0.15,"1","Stimuli/Stimuli_Bubble/Food/Banana_bubble_1.jpg","Food",0,0.7716,"yes",55,32,"facebook","aphantasia_facebook","Stimuli/Stimuli_Bubble/Food/Banana_bubble_1.jpg","aphant","unmasked","1",-1.89711998488588,1.30109221562538
"p_359aaf68a73a6a7f","yes","no",0.05,"1","Stimuli/Stimuli_Bubble/Clothing/Sweatpants_bubble_1.jpg","Clothing",1,0.0619,"yes",55,32,"facebook","aphantasia_facebook","Stimuli/Stimuli_Bubble/Clothing/Sweatpants_bubble_1.jpg","aphant","unmasked","1",-2.99573227355399,-0.490586918822914
"p_359aaf68a73a6a7f","yes","yes",0.1,"1","Stimuli/Stimuli_Bubble/Food/Apple_bubble_1.jpg","Food",0,2.7524,"yes",55,32,"facebook","aphantasia_facebook","Stimuli/Stimuli_Bubble/Food/Apple_bubble_1.jpg","aphant","masked","1",-2.30258509299405,0.639836755953673
"p_359aaf68a73a6a7f","yes","yes",0.05,"1","Stimuli/Stimuli_Bubble/Food/Pancake_bubble_1.jpg","Food",0,0.7042,"yes",55,32,"facebook","aphantasia_facebook","Stimuli/Stimuli_Bubble/Food/Pancake_bubble_1.jpg","aphant","masked","1",-2.99573227355399,-0.490586918822914
"p_359aaf68a73a6a7f","yes","yes",0.1,"1","Stimuli/Stimuli_Bubble/Toys/ToyCar_bubble_1.jpg","Toys",0,3.5595,"yes",55,32,"facebook","aphantasia_facebook","Stimuli/Stimuli_Bubble/Toys/ToyCar_bubble_1.jpg","aphant","masked","1",-2.30258509299405,0.639836755953673
"p_359aaf68a73a6a7f","yes","yes",0.15,"1","Stimuli/Stimuli_Bubble/Tools/ClampBar_bubble_1.jpg","Tools",1,0.7671,"yes",55,32,"facebook","aphantasia_facebook","Stimuli/Stimuli_Bubble/Tools/ClampBar_bubble_1.jpg","aphant","masked","1",-1.89711998488588,1.30109221562538
"p_359aaf68a73a6a7f","yes","yes",0.1,"1","Stimuli/Stimuli_Bubble/Toys/StuffedDog_bubble_1.jpg","Toys",0,1.7415,"yes",55,32,"facebook","aphantasia_facebook","Stimuli/Stimuli_Bubble/Toys/StuffedDog_bubble_1.jpg","aphant","masked","1",-2.30258509299405,0.639836755953673
"p_359aaf68a73a6a7f","yes","no",0.025,"1","Stimuli/Stimuli_Bubble/Food/Coconut_bubble_1.jpg","Food",0,1.0339,"yes",55,32,"facebook","aphantasia_facebook","Stimuli/Stimuli_Bubble/Food/Coconut_bubble_1.jpg","aphant","unmasked","1",-3.68887945411394,-1.6210105935995
"p_359aaf68a73a6a7f","yes","no",0.025,"1","Stimuli/Stimuli_Bubble/Food/Biscuit_bubble_1.jpg","Food",1,2.253,"yes",55,32,"facebook","aphantasia_facebook","Stimuli/Stimuli_Bubble/Food/Biscuit_bubble_1.jpg","aphant","unmasked","1",-3.68887945411394,-1.6210105935995
"p_359aaf68a73a6a7f","yes","no",0.05,"1","Stimuli/Stimuli_Bubble/Food/Carrot_bubble_1.jpg","Food",0,0.8175,"yes",55,32,"facebook","aphantasia_facebook","Stimuli/Stimuli_Bubble/Food/Carrot_bubble_1.jpg","aphant","unmasked","1",-2.99573227355399,-0.490586918822914
"p_359aaf68a73a6a7f","yes","no",0.075,"1","Stimuli/Stimuli_Bubble/Toys/NerfGun_bubble_1.jpg","Toys",0,0.79,"yes",55,32,"facebook","aphantasia_facebook","Stimuli/Stimuli_Bubble/Toys/NerfGun_bubble_1.jpg","aphant","unmasked","1",-2.59026716544583,0.170668540848797
"p_359aaf68a73a6a7f","yes","no",0.075,"1","Stimuli/Stimuli_Bubble/Clothing/PajamaBottoms_bubble_1.jpg","Clothing",1,0.5861,"yes",55,32,"facebook","aphantasia_facebook","Stimuli/Stimuli_Bubble/Clothing/PajamaBottoms_bubble_1.jpg","aphant","unmasked","1",-2.59026716544583,0.170668540848797
"p_359aaf68a73a6a7f","yes","yes",0.05,"1","Stimuli/Stimuli_Bubble/Clothing/ActivewearShorts_bubble_1.jpg","Clothing",1,2.6672,"yes",55,32,"facebook","aphantasia_facebook","Stimuli/Stimuli_Bubble/Clothing/ActivewearShorts_bubble_1.jpg","aphant","masked","1",-2.99573227355399,-0.490586918822914
"p_359aaf68a73a6a7f","yes","yes",0.15,"1","Stimuli/Stimuli_Bubble/Clothing/Dress_bubble_1.jpg","Clothing",1,2.8075,"yes",55,32,"facebook","aphantasia_facebook","Stimuli/Stimuli_Bubble/Clothing/Dress_bubble_1.jpg","aphant","masked","1",-1.89711998488588,1.30109221562538
"p_359aaf68a73a6a7f","yes","yes",0.075,"1","Stimuli/Stimuli_Bubble/Toys/Abacus_bubble_1.jpg","Toys",0,1.6395,"yes",55,32,"facebook","aphantasia_facebook","Stimuli/Stimuli_Bubble/Toys/Abacus_bubble_1.jpg","aphant","masked","1",-2.59026716544583,0.170668540848797
"p_359aaf68a73a6a7f","yes","no",0.05,"1","Stimuli/Stimuli_Bubble/Food/Eggplant_bubble_1.jpg","Food",0,1.6412,"yes",55,32,"facebook","aphantasia_facebook","Stimuli/Stimuli_Bubble/Food/Eggplant_bubble_1.jpg","aphant","unmasked","1",-2.99573227355399,-0.490586918822914
"p_359aaf68a73a6a7f","yes","no",0.1,"1","Stimuli/Stimuli_Bubble/Tools/Chisel_bubble_1.jpg","Tools",1,1.0254,"yes",55,32,"facebook","aphantasia_facebook","Stimuli/Stimuli_Bubble/Tools/Chisel_bubble_1.jpg","aphant","unmasked","1",-2.30258509299405,0.639836755953673
"p_359aaf68a73a6a7f","yes","yes",0.15,"1","Stimuli/Stimuli_Bubble/Clothing/FlipFlop_bubble_1.jpg","Clothing",0,1.3946,"yes",55,32,"facebook","aphantasia_facebook","Stimuli/Stimuli_Bubble/Clothing/FlipFlop_bubble_1.jpg","aphant","masked","1",-1.89711998488588,1.30109221562538
"p_359aaf68a73a6a7f","yes","yes",0.025,"1","Stimuli/Stimuli_Bubble/Toys/JackInTheBox_bubble_1.jpg","Toys",0,1.6057,"yes",55,32,"facebook","aphantasia_facebook","Stimuli/Stimuli_Bubble/Toys/JackInTheBox_bubble_1.jpg","aphant","masked","1",-3.68887945411394,-1.6210105935995
"p_359aaf68a73a6a7f","yes","yes",0.15,"1","Stimuli/Stimuli_Bubble/Toys/Slide_bubble_1.jpg","Toys",0,1.206,"yes",55,32,"facebook","aphantasia_facebook","Stimuli/Stimuli_Bubble/Toys/Slide_bubble_1.jpg","aphant","masked","1",-1.89711998488588,1.30109221562538
"p_359aaf68a73a6a7f","yes","no",0.025,"1","Stimuli/Stimuli_Bubble/Toys/Skateboard_bubble_1.jpg","Toys",0,2.4911,"yes",55,32,"facebook","aphantasia_facebook","Stimuli/Stimuli_Bubble/Toys/Skateboard_bubble_1.jpg","aphant","unmasked","1",-3.68887945411394,-1.6210105935995
"p_359aaf68a73a6a7f","yes","yes",0.05,"1","Stimuli/Stimuli_Bubble/Tools/MeasuringTape_bubble_1.jpg","Tools",0,1.184,"yes",55,32,"facebook","aphantasia_facebook","Stimuli/Stimuli_Bubble/Tools/MeasuringTape_bubble_1.jpg","aphant","masked","1",-2.99573227355399,-0.490586918822914
"p_359aaf68a73a6a7f","yes","yes",0.075,"1","Stimuli/Stimuli_Bubble/Clothing/Shorts_bubble_1.jpg","Clothing",1,0.9108,"yes",55,32,"facebook","aphantasia_facebook","Stimuli/Stimuli_Bubble/Clothing/Shorts_bubble_1.jpg","aphant","masked","1",-2.59026716544583,0.170668540848797
"p_359aaf68a73a6a7f","yes","no",0.025,"1","Stimuli/Stimuli_Bubble/Clothing/Overalls_bubble_1.jpg","Clothing",1,0.6004,"yes",55,32,"facebook","aphantasia_facebook","Stimuli/Stimuli_Bubble/Clothing/Overalls_bubble_1.jpg","aphant","unmasked","1",-3.68887945411394,-1.6210105935995
"p_359aaf68a73a6a7f","yes","no",0.05,"1","Stimuli/Stimuli_Bubble/Tools/PowerDrill_bubble_1.jpg","Tools",0,1.2435,"yes",55,32,"facebook","aphantasia_facebook","Stimuli/Stimuli_Bubble/Tools/PowerDrill_bubble_1.jpg","aphant","unmasked","1",-2.99573227355399,-0.490586918822914
"p_359aaf68a73a6a7f","yes","no",0.15,"1","Stimuli/Stimuli_Bubble/Tools/PaintBrush_bubble_1.jpg","Tools",1,0.7061,"yes",55,32,"facebook","aphantasia_facebook","Stimuli/Stimuli_Bubble/Tools/PaintBrush_bubble_1.jpg","aphant","unmasked","1",-1.89711998488588,1.30109221562538
"p_359aaf68a73a6a7f","yes","yes",0.075,"1","Stimuli/Stimuli_Bubble/Food/Orange_bubble_1.jpg","Food",0,1.1461,"yes",55,32,"facebook","aphantasia_facebook","Stimuli/Stimuli_Bubble/Food/Orange_bubble_1.jpg","aphant","masked","1",-2.59026716544583,0.170668540848797
"p_359aaf68a73a6a7f","yes","yes",0.075,"1","Stimuli/Stimuli_Bubble/Tools/BoltCutter_bubble_1.jpg","Tools",0,2.9502,"yes",55,32,"facebook","aphantasia_facebook","Stimuli/Stimuli_Bubble/Tools/BoltCutter_bubble_1.jpg","aphant","masked","1",-2.59026716544583,0.170668540848797
"p_359aaf68a73a6a7f","yes","no",0.15,"1","Stimuli/Stimuli_Bubble/Tools/Screw_bubble_1.jpg","Tools",1,0.9774,"yes",55,32,"facebook","aphantasia_facebook","Stimuli/Stimuli_Bubble/Tools/Screw_bubble_1.jpg","aphant","unmasked","1",-1.89711998488588,1.30109221562538
"p_359aaf68a73a6a7f","yes","no",0.1,"1","Stimuli/Stimuli_Bubble/Clothing/Slippers_bubble_1.jpg","Clothing",1,1.7349,"yes",55,32,"facebook","aphantasia_facebook","Stimuli/Stimuli_Bubble/Clothing/Slippers_bubble_1.jpg","aphant","unmasked","1",-2.30258509299405,0.639836755953673
"p_359aaf68a73a6a7f","yes","no",0.05,"1","Stimuli/Stimuli_Bubble/Toys/Mobile_bubble_1.jpg","Toys",0,1.0182,"yes",55,32,"facebook","aphantasia_facebook","Stimuli/Stimuli_Bubble/Toys/Mobile_bubble_1.jpg","aphant","unmasked","1",-2.99573227355399,-0.490586918822914
"p_359aaf68a73a6a7f","yes","yes",0.1,"1","Stimuli/Stimuli_Bubble/Food/Chips_bubble_1.jpg","Food",1,0.5838,"yes",55,32,"facebook","aphantasia_facebook","Stimuli/Stimuli_Bubble/Food/Chips_bubble_1.jpg","aphant","masked","1",-2.30258509299405,0.639836755953673
"p_359aaf68a73a6a7f","yes","no",0.15,"1","Stimuli/Stimuli_Bubble/Food/Onion_bubble_1.jpg","Food",0,1.5005,"yes",55,32,"facebook","aphantasia_facebook","Stimuli/Stimuli_Bubble/Food/Onion_bubble_1.jpg","aphant","unmasked","1",-1.89711998488588,1.30109221562538
"p_359aaf68a73a6a7f","yes","no",0.1,"1","Stimuli/Stimuli_Bubble/Tools/Pliers_bubble_1.jpg","Tools",1,1.7032,"yes",55,32,"facebook","aphantasia_facebook","Stimuli/Stimuli_Bubble/Tools/Pliers_bubble_1.jpg","aphant","unmasked","1",-2.30258509299405,0.639836755953673
"p_359aaf68a73a6a7f","yes","no",0.1,"1","Stimuli/Stimuli_Bubble/Food/Broccoli_bubble_1.jpg","Food",0,5.9437,"yes",55,32,"facebook","aphantasia_facebook","Stimuli/Stimuli_Bubble/Food/Broccoli_bubble_1.jpg","aphant","unmasked","1",-2.30258509299405,0.639836755953673
"p_359aaf68a73a6a7f","yes","no",0.1,"1","Stimuli/Stimuli_Bubble/Clothing/Beanie_bubble_1.jpg","Clothing",1,1.1009,"yes",55,32,"facebook","aphantasia_facebook","Stimuli/Stimuli_Bubble/Clothing/Beanie_bubble_1.jpg","aphant","unmasked","1",-2.30258509299405,0.639836755953673
"p_359aaf68a73a6a7f","yes","no",0.1,"1","Stimuli/Stimuli_Bubble/Toys/StuffedRabbit_bubble_1.jpg","Toys",0,0.5271,"yes",55,32,"facebook","aphantasia_facebook","Stimuli/Stimuli_Bubble/Toys/StuffedRabbit_bubble_1.jpg","aphant","unmasked","1",-2.30258509299405,0.639836755953673
"p_359aaf68a73a6a7f","yes","yes",0.1,"1","Stimuli/Stimuli_Bubble/Food/Pumpkin_bubble_1.jpg","Food",0,1.4741,"yes",55,32,"facebook","aphantasia_facebook","Stimuli/Stimuli_Bubble/Food/Pumpkin_bubble_1.jpg","aphant","masked","1",-2.30258509299405,0.639836755953673
"p_359aaf68a73a6a7f","yes","yes",0.05,"1","Stimuli/Stimuli_Bubble/Tools/JackHammer_bubble_1.jpg","Tools",0,1.1675,"yes",55,32,"facebook","aphantasia_facebook","Stimuli/Stimuli_Bubble/Tools/JackHammer_bubble_1.jpg","aphant","masked","1",-2.99573227355399,-0.490586918822914
"p_359aaf68a73a6a7f","yes","yes",0.1,"1","Stimuli/Stimuli_Bubble/Toys/Drum_bubble_1.jpg","Toys",0,2.2908,"yes",55,32,"facebook","aphantasia_facebook","Stimuli/Stimuli_Bubble/Toys/Drum_bubble_1.jpg","aphant","masked","1",-2.30258509299405,0.639836755953673
"p_359aaf68a73a6a7f","yes","yes",0.025,"1","Stimuli/Stimuli_Bubble/Food/Fries_bubble_1.jpg","Food",0,1.418,"yes",55,32,"facebook","aphantasia_facebook","Stimuli/Stimuli_Bubble/Food/Fries_bubble_1.jpg","aphant","masked","1",-3.68887945411394,-1.6210105935995
"p_359aaf68a73a6a7f","yes","yes",0.025,"1","Stimuli/Stimuli_Bubble/Toys/Lego_bubble_1.jpg","Toys",0,0.904,"yes",55,32,"facebook","aphantasia_facebook","Stimuli/Stimuli_Bubble/Toys/Lego_bubble_1.jpg","aphant","masked","1",-3.68887945411394,-1.6210105935995
"p_359aaf68a73a6a7f","yes","yes",0.075,"1","Stimuli/Stimuli_Bubble/Clothing/DenimJacket_bubble_1.jpg","Clothing",1,2.8668,"yes",55,32,"facebook","aphantasia_facebook","Stimuli/Stimuli_Bubble/Clothing/DenimJacket_bubble_1.jpg","aphant","masked","1",-2.59026716544583,0.170668540848797
"p_359aaf68a73a6a7f","yes","no",0.15,"1","Stimuli/Stimuli_Bubble/Clothing/Scarf_bubble_1.jpg","Clothing",0,1.0071,"yes",55,32,"facebook","aphantasia_facebook","Stimuli/Stimuli_Bubble/Clothing/Scarf_bubble_1.jpg","aphant","unmasked","1",-1.89711998488588,1.30109221562538
"p_359aaf68a73a6a7f","yes","no",0.025,"1","Stimuli/Stimuli_Bubble/Tools/Blowtorch_bubble_1.jpg","Tools",0,0.1213,"yes",55,32,"facebook","aphantasia_facebook","Stimuli/Stimuli_Bubble/Tools/Blowtorch_bubble_1.jpg","aphant","unmasked","1",-3.68887945411394,-1.6210105935995
"p_359aaf68a73a6a7f","yes","no",0.075,"1","Stimuli/Stimuli_Bubble/Tools/Grinder_bubble_1.jpg","Tools",0,3.8831,"yes",55,32,"facebook","aphantasia_facebook","Stimuli/Stimuli_Bubble/Tools/Grinder_bubble_1.jpg","aphant","unmasked","1",-2.59026716544583,0.170668540848797
"p_359aaf68a73a6a7f","yes","no",0.025,"1","Stimuli/Stimuli_Bubble/Toys/Bicycle_bubble_1.jpg","Toys",1,0.5503,"yes",55,32,"facebook","aphantasia_facebook","Stimuli/Stimuli_Bubble/Toys/Bicycle_bubble_1.jpg","aphant","unmasked","1",-3.68887945411394,-1.6210105935995
"p_359aaf68a73a6a7f","yes","no",0.1,"1","Stimuli/Stimuli_Bubble/Tools/Flashlight_bubble_1.jpg","Tools",1,0.4233,"yes",55,32,"facebook","aphantasia_facebook","Stimuli/Stimuli_Bubble/Tools/Flashlight_bubble_1.jpg","aphant","unmasked","1",-2.30258509299405,0.639836755953673
"p_359aaf68a73a6a7f","yes","yes",0.1,"1","Stimuli/Stimuli_Bubble/Clothing/BaseballCap_bubble_1.jpg","Clothing",1,0.3173,"yes",55,32,"facebook","aphantasia_facebook","Stimuli/Stimuli_Bubble/Clothing/BaseballCap_bubble_1.jpg","aphant","masked","1",-2.30258509299405,0.639836755953673
"p_359aaf68a73a6a7f","yes","yes",0.025,"1","Stimuli/Stimuli_Bubble/Toys/PelletDrumRattle_bubble_1.jpg","Toys",0,0.0063,"yes",55,32,"facebook","aphantasia_facebook","Stimuli/Stimuli_Bubble/Toys/PelletDrumRattle_bubble_1.jpg","aphant","masked","1",-3.68887945411394,-1.6210105935995
"p_359aaf68a73a6a7f","yes","no",0.075,"1","Stimuli/Stimuli_Bubble/Tools/ChainHook_bubble_1.jpg","Tools",1,0.6507,"yes",55,32,"facebook","aphantasia_facebook","Stimuli/Stimuli_Bubble/Tools/ChainHook_bubble_1.jpg","aphant","unmasked","1",-2.59026716544583,0.170668540848797
"p_359aaf68a73a6a7f","yes","yes",0.025,"1","Stimuli/Stimuli_Bubble/Clothing/Gloves_bubble_1.jpg","Clothing",1,1.2347,"yes",55,32,"facebook","aphantasia_facebook","Stimuli/Stimuli_Bubble/Clothing/Gloves_bubble_1.jpg","aphant","masked","1",-3.68887945411394,-1.6210105935995
"p_359aaf68a73a6a7f","yes","no",0.05,"1","Stimuli/Stimuli_Bubble/Toys/SandToy_bubble_1.jpg","Toys",0,0.5396,"yes",55,32,"facebook","aphantasia_facebook","Stimuli/Stimuli_Bubble/Toys/SandToy_bubble_1.jpg","aphant","unmasked","1",-2.99573227355399,-0.490586918822914
"p_359aaf68a73a6a7f","yes","no",0.1,"1","Stimuli/Stimuli_Bubble/Food/GreenPepper_bubble_1.jpg","Food",0,4.3678,"yes",55,32,"facebook","aphantasia_facebook","Stimuli/Stimuli_Bubble/Food/GreenPepper_bubble_1.jpg","aphant","unmasked","1",-2.30258509299405,0.639836755953673
"p_359aaf68a73a6a7f","yes","yes",0.15,"1","Stimuli/Stimuli_Bubble/Tools/Plunger_bubble_1.jpg","Tools",1,0.817,"yes",55,32,"facebook","aphantasia_facebook","Stimuli/Stimuli_Bubble/Tools/Plunger_bubble_1.jpg","aphant","masked","1",-1.89711998488588,1.30109221562538
"p_359aaf68a73a6a7f","yes","no",0.1,"1","Stimuli/Stimuli_Bubble/Toys/SkippingRope_bubble_1.jpg","Toys",0,0.2344,"yes",55,32,"facebook","aphantasia_facebook","Stimuli/Stimuli_Bubble/Toys/SkippingRope_bubble_1.jpg","aphant","unmasked","1",-2.30258509299405,0.639836755953673
"p_359aaf68a73a6a7f","yes","yes",0.05,"1","Stimuli/Stimuli_Bubble/Toys/Balloon_bubble_1.jpg","Toys",0,1.0194,"yes",55,32,"facebook","aphantasia_facebook","Stimuli/Stimuli_Bubble/Toys/Balloon_bubble_1.jpg","aphant","masked","1",-2.99573227355399,-0.490586918822914
"p_359aaf68a73a6a7f","yes","no",0.15,"1","Stimuli/Stimuli_Bubble/Tools/HandRake_bubble_1.jpg","Tools",1,0.5288,"yes",55,32,"facebook","aphantasia_facebook","Stimuli/Stimuli_Bubble/Tools/HandRake_bubble_1.jpg","aphant","unmasked","1",-1.89711998488588,1.30109221562538
"p_359aaf68a73a6a7f","yes","no",0.15,"1","Stimuli/Stimuli_Bubble/Toys/Pinata_bubble_1.jpg","Toys",0,0.6868,"yes",55,32,"facebook","aphantasia_facebook","Stimuli/Stimuli_Bubble/Toys/Pinata_bubble_1.jpg","aphant","unmasked","1",-1.89711998488588,1.30109221562538
"p_359aaf68a73a6a7f","yes","yes",0.025,"1","Stimuli/Stimuli_Bubble/Clothing/Swimsuit_bubble_1.jpg","Clothing",1,0.6301,"yes",55,32,"facebook","aphantasia_facebook","Stimuli/Stimuli_Bubble/Clothing/Swimsuit_bubble_1.jpg","aphant","masked","1",-3.68887945411394,-1.6210105935995
"p_359aaf68a73a6a7f","yes","yes",0.15,"1","Stimuli/Stimuli_Bubble/Food/Chocolate_bubble_1.jpg","Food",0,0.2413,"yes",55,32,"facebook","aphantasia_facebook","Stimuli/Stimuli_Bubble/Food/Chocolate_bubble_1.jpg","aphant","masked","1",-1.89711998488588,1.30109221562538
"p_359aaf68a73a6a7f","yes","no",0.05,"1","Stimuli/Stimuli_Bubble/Clothing/LeatherJacket_bubble_1.jpg","Clothing",1,0.0045,"yes",55,32,"facebook","aphantasia_facebook","Stimuli/Stimuli_Bubble/Clothing/LeatherJacket_bubble_1.jpg","aphant","unmasked","1",-2.99573227355399,-0.490586918822914
"p_359aaf68a73a6a7f","yes","no",0.025,"1","Stimuli/Stimuli_Bubble/Clothing/Shirt_bubble_1.jpg","Clothing",1,0.5673,"yes",55,32,"facebook","aphantasia_facebook","Stimuli/Stimuli_Bubble/Clothing/Shirt_bubble_1.jpg","aphant","unmasked","1",-3.68887945411394,-1.6210105935995
"p_359aaf68a73a6a7f","yes","yes",0.15,"1","Stimuli/Stimuli_Bubble/Food/Melon_bubble_1.jpg","Food",1,0.567,"yes",55,32,"facebook","aphantasia_facebook","Stimuli/Stimuli_Bubble/Food/Melon_bubble_1.jpg","aphant","masked","1",-1.89711998488588,1.30109221562538
"p_359aaf68a73a6a7f","yes","no",0.15,"1","Stimuli/Stimuli_Bubble/Clothing/Gumboots_bubble_1.jpg","Clothing",1,0.5292,"yes",55,32,"facebook","aphantasia_facebook","Stimuli/Stimuli_Bubble/Clothing/Gumboots_bubble_1.jpg","aphant","unmasked","1",-1.89711998488588,1.30109221562538
"p_359aaf68a73a6a7f","yes","yes",0.15,"1","Stimuli/Stimuli_Bubble/Toys/EtchASketch_bubble_1.jpg","Toys",1,1.6022,"yes",55,32,"facebook","aphantasia_facebook","Stimuli/Stimuli_Bubble/Toys/EtchASketch_bubble_1.jpg","aphant","masked","1",-1.89711998488588,1.30109221562538
"p_359aaf68a73a6a7f","yes","yes",0.1,"1","Stimuli/Stimuli_Bubble/Clothing/Bikini_bubble_1.jpg","Clothing",1,1.3718,"yes",55,32,"facebook","aphantasia_facebook","Stimuli/Stimuli_Bubble/Clothing/Bikini_bubble_1.jpg","aphant","masked","1",-2.30258509299405,0.639836755953673
"p_359aaf68a73a6a7f","yes","yes",0.15,"1","Stimuli/Stimuli_Bubble/Clothing/Coat_bubble_1.jpg","Clothing",1,0.5776,"yes",55,32,"facebook","aphantasia_facebook","Stimuli/Stimuli_Bubble/Clothing/Coat_bubble_1.jpg","aphant","masked","1",-1.89711998488588,1.30109221562538
"p_359aaf68a73a6a7f","yes","yes",0.05,"1","Stimuli/Stimuli_Bubble/Clothing/SnowBoots_bubble_1.jpg","Clothing",1,0.8608,"yes",55,32,"facebook","aphantasia_facebook","Stimuli/Stimuli_Bubble/Clothing/SnowBoots_bubble_1.jpg","aphant","masked","1",-2.99573227355399,-0.490586918822914
"p_359aaf68a73a6a7f","yes","yes",0.075,"1","Stimuli/Stimuli_Bubble/Tools/HandTruck_bubble_1.jpg","Tools",1,0.7696,"yes",55,32,"facebook","aphantasia_facebook","Stimuli/Stimuli_Bubble/Tools/HandTruck_bubble_1.jpg","aphant","masked","1",-2.59026716544583,0.170668540848797
"p_359aaf68a73a6a7f","yes","yes",0.05,"1","Stimuli/Stimuli_Bubble/Toys/StuffedHippo_bubble_1.jpg","Toys",0,1.545,"yes",55,32,"facebook","aphantasia_facebook","Stimuli/Stimuli_Bubble/Toys/StuffedHippo_bubble_1.jpg","aphant","masked","1",-2.99573227355399,-0.490586918822914
"p_359aaf68a73a6a7f","yes","no",0.075,"1","Stimuli/Stimuli_Bubble/Food/Beetroot_bubble_1.jpg","Food",1,0.8349,"yes",55,32,"facebook","aphantasia_facebook","Stimuli/Stimuli_Bubble/Food/Beetroot_bubble_1.jpg","aphant","unmasked","1",-2.59026716544583,0.170668540848797
"p_359aaf68a73a6a7f","yes","no",0.15,"1","Stimuli/Stimuli_Bubble/Clothing/Panties_bubble_1.jpg","Clothing",1,0.5345,"yes",55,32,"facebook","aphantasia_facebook","Stimuli/Stimuli_Bubble/Clothing/Panties_bubble_1.jpg","aphant","unmasked","1",-1.89711998488588,1.30109221562538
"p_359aaf68a73a6a7f","yes","no",0.15,"1","Stimuli/Stimuli_Bubble/Toys/SpinningTop_bubble_1.jpg","Toys",0,1.1642,"yes",55,32,"facebook","aphantasia_facebook","Stimuli/Stimuli_Bubble/Toys/SpinningTop_bubble_1.jpg","aphant","unmasked","1",-1.89711998488588,1.30109221562538
"p_359aaf68a73a6a7f","yes","no",0.025,"1","Stimuli/Stimuli_Bubble/Tools/SafetyGlasses_bubble_1.jpg","Tools",0,1.717,"yes",55,32,"facebook","aphantasia_facebook","Stimuli/Stimuli_Bubble/Tools/SafetyGlasses_bubble_1.jpg","aphant","unmasked","1",-3.68887945411394,-1.6210105935995
"p_359aaf68a73a6a7f","yes","yes",0.025,"1","Stimuli/Stimuli_Bubble/Tools/HackSaw_bubble_1.jpg","Tools",0,0.6753,"yes",55,32,"facebook","aphantasia_facebook","Stimuli/Stimuli_Bubble/Tools/HackSaw_bubble_1.jpg","aphant","masked","1",-3.68887945411394,-1.6210105935995
"p_359aaf68a73a6a7f","yes","no",0.05,"1","Stimuli/Stimuli_Bubble/Clothing/Belt_bubble_1.jpg","Clothing",1,0.4512,"yes",55,32,"facebook","aphantasia_facebook","Stimuli/Stimuli_Bubble/Clothing/Belt_bubble_1.jpg","aphant","unmasked","1",-2.99573227355399,-0.490586918822914
"p_359aaf68a73a6a7f","yes","no",0.025,"1","Stimuli/Stimuli_Bubble/Clothing/Hoodie_bubble_1.jpg","Clothing",1,0.5484,"yes",55,32,"facebook","aphantasia_facebook","Stimuli/Stimuli_Bubble/Clothing/Hoodie_bubble_1.jpg","aphant","unmasked","1",-3.68887945411394,-1.6210105935995
"p_359aaf68a73a6a7f","yes","yes",0.075,"1","Stimuli/Stimuli_Bubble/Food/Cheese_bubble_1.jpg","Food",0,1.951,"yes",55,32,"facebook","aphantasia_facebook","Stimuli/Stimuli_Bubble/Food/Cheese_bubble_1.jpg","aphant","masked","1",-2.59026716544583,0.170668540848797
"p_359aaf68a73a6a7f","yes","yes",0.1,"1","Stimuli/Stimuli_Bubble/Tools/Level_bubble_1.jpg","Tools",1,2.2175,"yes",55,32,"facebook","aphantasia_facebook","Stimuli/Stimuli_Bubble/Tools/Level_bubble_1.jpg","aphant","masked","1",-2.30258509299405,0.639836755953673
"p_359aaf68a73a6a7f","yes","yes",0.1,"1","Stimuli/Stimuli_Bubble/Clothing/Boxers_bubble_1.jpg","Clothing",1,0.0744,"yes",55,32,"facebook","aphantasia_facebook","Stimuli/Stimuli_Bubble/Clothing/Boxers_bubble_1.jpg","aphant","masked","1",-2.30258509299405,0.639836755953673
"p_359aaf68a73a6a7f","yes","no",0.05,"1","Stimuli/Stimuli_Bubble/Food/Omelette_bubble_1.jpg","Food",0,1.4008,"yes",55,32,"facebook","aphantasia_facebook","Stimuli/Stimuli_Bubble/Food/Omelette_bubble_1.jpg","aphant","unmasked","1",-2.99573227355399,-0.490586918822914
"p_359aaf68a73a6a7f","yes","no",0.15,"1","Stimuli/Stimuli_Bubble/Toys/ActivityGym_bubble_1.jpg","Toys",1,0.6607,"yes",55,32,"facebook","aphantasia_facebook","Stimuli/Stimuli_Bubble/Toys/ActivityGym_bubble_1.jpg","aphant","unmasked","1",-1.89711998488588,1.30109221562538
"p_359aaf68a73a6a7f","yes","no",0.075,"1","Stimuli/Stimuli_Bubble/Clothing/Raincoat_bubble_1.jpg","Clothing",1,1.0067,"yes",55,32,"facebook","aphantasia_facebook","Stimuli/Stimuli_Bubble/Clothing/Raincoat_bubble_1.jpg","aphant","unmasked","1",-2.59026716544583,0.170668540848797
"p_359aaf68a73a6a7f","yes","yes",0.075,"1","Stimuli/Stimuli_Bubble/Toys/Tent_bubble_1.jpg","Toys",0,0.9236,"yes",55,32,"facebook","aphantasia_facebook","Stimuli/Stimuli_Bubble/Toys/Tent_bubble_1.jpg","aphant","masked","1",-2.59026716544583,0.170668540848797
"p_359aaf68a73a6a7f","yes","no",0.025,"1","Stimuli/Stimuli_Bubble/Tools/Pipe_bubble_1.jpg","Tools",0,1.7184,"yes",55,32,"facebook","aphantasia_facebook","Stimuli/Stimuli_Bubble/Tools/Pipe_bubble_1.jpg","aphant","unmasked","1",-3.68887945411394,-1.6210105935995
"p_359aaf68a73a6a7f","yes","yes",0.15,"1","Stimuli/Stimuli_Bubble/Tools/PaintRoller_bubble_1.jpg","Tools",1,1.828,"yes",55,32,"facebook","aphantasia_facebook","Stimuli/Stimuli_Bubble/Tools/PaintRoller_bubble_1.jpg","aphant","masked","1",-1.89711998488588,1.30109221562538
"p_359aaf68a73a6a7f","yes","yes",0.05,"1","Stimuli/Stimuli_Bubble/Tools/Snip_bubble_1.jpg","Tools",1,1.1033,"yes",55,32,"facebook","aphantasia_facebook","Stimuli/Stimuli_Bubble/Tools/Snip_bubble_1.jpg","aphant","masked","1",-2.99573227355399,-0.490586918822914
"p_359aaf68a73a6a7f","yes","no",0.05,"1","Stimuli/Stimuli_Bubble/Tools/BlacksmithTongs_bubble_1.jpg","Tools",1,0.8174,"yes",55,32,"facebook","aphantasia_facebook","Stimuli/Stimuli_Bubble/Tools/BlacksmithTongs_bubble_1.jpg","aphant","unmasked","1",-2.99573227355399,-0.490586918822914
"p_359aaf68a73a6a7f","yes","yes",0.075,"2","Stimuli/Stimuli_Bubble/Toys/Barbie_bubble_2.jpg","Toys",1,1.1038,"yes",55,32,"facebook","aphantasia_facebook","Stimuli/Stimuli_Bubble/Toys/Barbie_bubble_2.jpg","aphant","masked","2",-2.59026716544583,0.170668540848797
"p_359aaf68a73a6a7f","yes","no",0.15,"2","Stimuli/Stimuli_Bubble/Food/Corn_bubble_2.jpg","Food",1,0.7096,"yes",55,32,"facebook","aphantasia_facebook","Stimuli/Stimuli_Bubble/Food/Corn_bubble_2.jpg","aphant","unmasked","2",-1.89711998488588,1.30109221562538
"p_359aaf68a73a6a7f","yes","yes",0.15,"2","Stimuli/Stimuli_Bubble/Toys/ToyCar_bubble_2.jpg","Toys",0,0.5936,"yes",55,32,"facebook","aphantasia_facebook","Stimuli/Stimuli_Bubble/Toys/ToyCar_bubble_2.jpg","aphant","masked","2",-1.89711998488588,1.30109221562538
"p_359aaf68a73a6a7f","yes","no",0.1,"2","Stimuli/Stimuli_Bubble/Tools/ChainHook_bubble_2.jpg","Tools",0,2.5143,"yes",55,32,"facebook","aphantasia_facebook","Stimuli/Stimuli_Bubble/Tools/ChainHook_bubble_2.jpg","aphant","unmasked","2",-2.30258509299405,0.639836755953673
"p_359aaf68a73a6a7f","yes","yes",0.025,"2","Stimuli/Stimuli_Bubble/Clothing/Scarf_bubble_2.jpg","Clothing",1,3.4197,"yes",55,32,"facebook","aphantasia_facebook","Stimuli/Stimuli_Bubble/Clothing/Scarf_bubble_2.jpg","aphant","masked","2",-3.68887945411394,-1.6210105935995
"p_359aaf68a73a6a7f","yes","no",0.1,"2","Stimuli/Stimuli_Bubble/Tools/ServiceCart_bubble_2.jpg","Tools",1,0.6463,"yes",55,32,"facebook","aphantasia_facebook","Stimuli/Stimuli_Bubble/Tools/ServiceCart_bubble_2.jpg","aphant","unmasked","2",-2.30258509299405,0.639836755953673
"p_359aaf68a73a6a7f","yes","no",0.15,"2","Stimuli/Stimuli_Bubble/Tools/PaintTray_bubble_2.jpg","Tools",1,1.5508,"yes",55,32,"facebook","aphantasia_facebook","Stimuli/Stimuli_Bubble/Tools/PaintTray_bubble_2.jpg","aphant","unmasked","2",-1.89711998488588,1.30109221562538
"p_359aaf68a73a6a7f","yes","no",0.025,"2","Stimuli/Stimuli_Bubble/Tools/BoltCutter_bubble_2.jpg","Tools",1,0.4447,"yes",55,32,"facebook","aphantasia_facebook","Stimuli/Stimuli_Bubble/Tools/BoltCutter_bubble_2.jpg","aphant","unmasked","2",-3.68887945411394,-1.6210105935995
"p_359aaf68a73a6a7f","yes","yes",0.05,"2","Stimuli/Stimuli_Bubble/Food/Bagel_bubble_2.jpg","Food",0,0.7507,"yes",55,32,"facebook","aphantasia_facebook","Stimuli/Stimuli_Bubble/Food/Bagel_bubble_2.jpg","aphant","masked","2",-2.99573227355399,-0.490586918822914
"p_359aaf68a73a6a7f","yes","yes",0.025,"2","Stimuli/Stimuli_Bubble/Clothing/Belt_bubble_2.jpg","Clothing",1,2.4398,"yes",55,32,"facebook","aphantasia_facebook","Stimuli/Stimuli_Bubble/Clothing/Belt_bubble_2.jpg","aphant","masked","2",-3.68887945411394,-1.6210105935995
"p_359aaf68a73a6a7f","yes","yes",0.15,"2","Stimuli/Stimuli_Bubble/Tools/HandTruck_bubble_2.jpg","Tools",1,0.134,"yes",55,32,"facebook","aphantasia_facebook","Stimuli/Stimuli_Bubble/Tools/HandTruck_bubble_2.jpg","aphant","masked","2",-1.89711998488588,1.30109221562538
"p_359aaf68a73a6a7f","yes","no",0.1,"2","Stimuli/Stimuli_Bubble/Clothing/Panties_bubble_2.jpg","Clothing",1,1.0128,"yes",55,32,"facebook","aphantasia_facebook","Stimuli/Stimuli_Bubble/Clothing/Panties_bubble_2.jpg","aphant","unmasked","2",-2.30258509299405,0.639836755953673
"p_359aaf68a73a6a7f","yes","no",0.15,"2","Stimuli/Stimuli_Bubble/Toys/StuffedHippo_bubble_2.jpg","Toys",1,1.2377,"yes",55,32,"facebook","aphantasia_facebook","Stimuli/Stimuli_Bubble/Toys/StuffedHippo_bubble_2.jpg","aphant","unmasked","2",-1.89711998488588,1.30109221562538
"p_359aaf68a73a6a7f","yes","no",0.15,"2","Stimuli/Stimuli_Bubble/Toys/Doll_bubble_2.jpg","Toys",0,0.5764,"yes",55,32,"facebook","aphantasia_facebook","Stimuli/Stimuli_Bubble/Toys/Doll_bubble_2.jpg","aphant","unmasked","2",-1.89711998488588,1.30109221562538
"p_359aaf68a73a6a7f","yes","yes",0.15,"2","Stimuli/Stimuli_Bubble/Tools/BlacksmithTongs_bubble_2.jpg","Tools",1,1.7424,"yes",55,32,"facebook","aphantasia_facebook","Stimuli/Stimuli_Bubble/Tools/BlacksmithTongs_bubble_2.jpg","aphant","masked","2",-1.89711998488588,1.30109221562538
"p_359aaf68a73a6a7f","yes","yes",0.15,"2","Stimuli/Stimuli_Bubble/Food/Pie_bubble_2.jpg","Food",0,0.0708,"yes",55,32,"facebook","aphantasia_facebook","Stimuli/Stimuli_Bubble/Food/Pie_bubble_2.jpg","aphant","masked","2",-1.89711998488588,1.30109221562538
"p_359aaf68a73a6a7f","yes","no",0.025,"2","Stimuli/Stimuli_Bubble/Toys/Bicycle_bubble_2.jpg","Toys",1,0.671,"yes",55,32,"facebook","aphantasia_facebook","Stimuli/Stimuli_Bubble/Toys/Bicycle_bubble_2.jpg","aphant","unmasked","2",-3.68887945411394,-1.6210105935995
"p_359aaf68a73a6a7f","yes","yes",0.075,"2","Stimuli/Stimuli_Bubble/Clothing/DenimJacket_bubble_2.jpg","Clothing",1,0.1434,"yes",55,32,"facebook","aphantasia_facebook","Stimuli/Stimuli_Bubble/Clothing/DenimJacket_bubble_2.jpg","aphant","masked","2",-2.59026716544583,0.170668540848797
"p_359aaf68a73a6a7f","yes","no",0.1,"2","Stimuli/Stimuli_Bubble/Toys/StuffedDog_bubble_2.jpg","Toys",0,1.2787,"yes",55,32,"facebook","aphantasia_facebook","Stimuli/Stimuli_Bubble/Toys/StuffedDog_bubble_2.jpg","aphant","unmasked","2",-2.30258509299405,0.639836755953673
"p_359aaf68a73a6a7f","yes","no",0.025,"2","Stimuli/Stimuli_Bubble/Toys/Ball_bubble_2.jpg","Toys",0,2.1996,"yes",55,32,"facebook","aphantasia_facebook","Stimuli/Stimuli_Bubble/Toys/Ball_bubble_2.jpg","aphant","unmasked","2",-3.68887945411394,-1.6210105935995
"p_359aaf68a73a6a7f","yes","yes",0.15,"2","Stimuli/Stimuli_Bubble/Clothing/Blazer_bubble_2.jpg","Clothing",1,0.6828,"yes",55,32,"facebook","aphantasia_facebook","Stimuli/Stimuli_Bubble/Clothing/Blazer_bubble_2.jpg","aphant","masked","2",-1.89711998488588,1.30109221562538
"p_359aaf68a73a6a7f","yes","yes",0.1,"2","Stimuli/Stimuli_Bubble/Clothing/ActivewearShorts_bubble_2.jpg","Clothing",1,0.8679,"yes",55,32,"facebook","aphantasia_facebook","Stimuli/Stimuli_Bubble/Clothing/ActivewearShorts_bubble_2.jpg","aphant","masked","2",-2.30258509299405,0.639836755953673
"p_359aaf68a73a6a7f","yes","yes",0.075,"2","Stimuli/Stimuli_Bubble/Toys/DollHouse_bubble_2.jpg","Toys",0,2.2753,"yes",55,32,"facebook","aphantasia_facebook","Stimuli/Stimuli_Bubble/Toys/DollHouse_bubble_2.jpg","aphant","masked","2",-2.59026716544583,0.170668540848797
"p_359aaf68a73a6a7f","yes","yes",0.025,"2","Stimuli/Stimuli_Bubble/Tools/Pincers_bubble_2.jpg","Tools",0,1.0518,"yes",55,32,"facebook","aphantasia_facebook","Stimuli/Stimuli_Bubble/Tools/Pincers_bubble_2.jpg","aphant","masked","2",-3.68887945411394,-1.6210105935995
"p_359aaf68a73a6a7f","yes","no",0.15,"2","Stimuli/Stimuli_Bubble/Tools/ScrewDriver_bubble_2.jpg","Tools",1,0.6423,"yes",55,32,"facebook","aphantasia_facebook","Stimuli/Stimuli_Bubble/Tools/ScrewDriver_bubble_2.jpg","aphant","unmasked","2",-1.89711998488588,1.30109221562538
"p_359aaf68a73a6a7f","yes","yes",0.025,"2","Stimuli/Stimuli_Bubble/Toys/RockingHorse_bubble_2.jpg","Toys",0,3.6103,"yes",55,32,"facebook","aphantasia_facebook","Stimuli/Stimuli_Bubble/Toys/RockingHorse_bubble_2.jpg","aphant","masked","2",-3.68887945411394,-1.6210105935995
"p_359aaf68a73a6a7f","yes","no",0.025,"2","Stimuli/Stimuli_Bubble/Food/Avocado_bubble_2.jpg","Food",0,2.2563,"yes",55,32,"facebook","aphantasia_facebook","Stimuli/Stimuli_Bubble/Food/Avocado_bubble_2.jpg","aphant","unmasked","2",-3.68887945411394,-1.6210105935995
"p_359aaf68a73a6a7f","yes","no",0.1,"2","Stimuli/Stimuli_Bubble/Toys/JackInTheBox_bubble_2.jpg","Toys",0,1.1843,"yes",55,32,"facebook","aphantasia_facebook","Stimuli/Stimuli_Bubble/Toys/JackInTheBox_bubble_2.jpg","aphant","unmasked","2",-2.30258509299405,0.639836755953673
"p_359aaf68a73a6a7f","yes","no",0.075,"2","Stimuli/Stimuli_Bubble/Clothing/SnowBoots_bubble_2.jpg","Clothing",1,1.0029,"yes",55,32,"facebook","aphantasia_facebook","Stimuli/Stimuli_Bubble/Clothing/SnowBoots_bubble_2.jpg","aphant","unmasked","2",-2.59026716544583,0.170668540848797
"p_359aaf68a73a6a7f","yes","no",0.025,"2","Stimuli/Stimuli_Bubble/Clothing/Overalls_bubble_2.jpg","Clothing",1,1.2433,"yes",55,32,"facebook","aphantasia_facebook","Stimuli/Stimuli_Bubble/Clothing/Overalls_bubble_2.jpg","aphant","unmasked","2",-3.68887945411394,-1.6210105935995
"p_359aaf68a73a6a7f","yes","no",0.05,"2","Stimuli/Stimuli_Bubble/Tools/PipeWrench_bubble_2.jpg","Tools",1,0.7084,"yes",55,32,"facebook","aphantasia_facebook","Stimuli/Stimuli_Bubble/Tools/PipeWrench_bubble_2.jpg","aphant","unmasked","2",-2.99573227355399,-0.490586918822914
"p_359aaf68a73a6a7f","yes","no",0.05,"2","Stimuli/Stimuli_Bubble/Tools/Level_bubble_2.jpg","Tools",1,0.5608,"yes",55,32,"facebook","aphantasia_facebook","Stimuli/Stimuli_Bubble/Tools/Level_bubble_2.jpg","aphant","unmasked","2",-2.99573227355399,-0.490586918822914
"p_359aaf68a73a6a7f","yes","no",0.15,"2","Stimuli/Stimuli_Bubble/Clothing/Heels_bubble_2.jpg","Clothing",1,1.2292,"yes",55,32,"facebook","aphantasia_facebook","Stimuli/Stimuli_Bubble/Clothing/Heels_bubble_2.jpg","aphant","unmasked","2",-1.89711998488588,1.30109221562538
"p_359aaf68a73a6a7f","yes","yes",0.1,"2","Stimuli/Stimuli_Bubble/Toys/Abacus_bubble_2.jpg","Toys",1,1.2767,"yes",55,32,"facebook","aphantasia_facebook","Stimuli/Stimuli_Bubble/Toys/Abacus_bubble_2.jpg","aphant","masked","2",-2.30258509299405,0.639836755953673
"p_359aaf68a73a6a7f","yes","yes",0.1,"2","Stimuli/Stimuli_Bubble/Tools/LeafBlower_bubble_2.jpg","Tools",1,0.7964,"yes",55,32,"facebook","aphantasia_facebook","Stimuli/Stimuli_Bubble/Tools/LeafBlower_bubble_2.jpg","aphant","masked","2",-2.30258509299405,0.639836755953673
"p_359aaf68a73a6a7f","yes","yes",0.05,"2","Stimuli/Stimuli_Bubble/Food/Croissant_bubble_2.jpg","Food",0,1.267,"yes",55,32,"facebook","aphantasia_facebook","Stimuli/Stimuli_Bubble/Food/Croissant_bubble_2.jpg","aphant","masked","2",-2.99573227355399,-0.490586918822914
"p_359aaf68a73a6a7f","yes","yes",0.15,"2","Stimuli/Stimuli_Bubble/Clothing/Sweater_bubble_2.jpg","Clothing",1,0.784,"yes",55,32,"facebook","aphantasia_facebook","Stimuli/Stimuli_Bubble/Clothing/Sweater_bubble_2.jpg","aphant","masked","2",-1.89711998488588,1.30109221562538
"p_359aaf68a73a6a7f","yes","no",0.075,"2","Stimuli/Stimuli_Bubble/Toys/Lego_bubble_2.jpg","Toys",1,0.8515,"yes",55,32,"facebook","aphantasia_facebook","Stimuli/Stimuli_Bubble/Toys/Lego_bubble_2.jpg","aphant","unmasked","2",-2.59026716544583,0.170668540848797
"p_359aaf68a73a6a7f","yes","yes",0.025,"2","Stimuli/Stimuli_Bubble/Tools/PaintBrush_bubble_2.jpg","Tools",0,1.7356,"yes",55,32,"facebook","aphantasia_facebook","Stimuli/Stimuli_Bubble/Tools/PaintBrush_bubble_2.jpg","aphant","masked","2",-3.68887945411394,-1.6210105935995
"p_359aaf68a73a6a7f","yes","no",0.15,"2","Stimuli/Stimuli_Bubble/Tools/Bolt_bubble_2.jpg","Tools",0,7.8189,"yes",55,32,"facebook","aphantasia_facebook","Stimuli/Stimuli_Bubble/Tools/Bolt_bubble_2.jpg","aphant","unmasked","2",-1.89711998488588,1.30109221562538
"p_359aaf68a73a6a7f","yes","no",0.075,"2","Stimuli/Stimuli_Bubble/Tools/PaintRoller_bubble_2.jpg","Tools",1,0.833,"yes",55,32,"facebook","aphantasia_facebook","Stimuli/Stimuli_Bubble/Tools/PaintRoller_bubble_2.jpg","aphant","unmasked","2",-2.59026716544583,0.170668540848797
"p_359aaf68a73a6a7f","yes","no",0.075,"2","Stimuli/Stimuli_Bubble/Toys/ActivityGym_bubble_2.jpg","Toys",1,0.9907,"yes",55,32,"facebook","aphantasia_facebook","Stimuli/Stimuli_Bubble/Toys/ActivityGym_bubble_2.jpg","aphant","unmasked","2",-2.59026716544583,0.170668540848797
"p_359aaf68a73a6a7f","yes","no",0.15,"2","Stimuli/Stimuli_Bubble/Clothing/PajamaTop_bubble_2.jpg","Clothing",1,0.6635,"yes",55,32,"facebook","aphantasia_facebook","Stimuli/Stimuli_Bubble/Clothing/PajamaTop_bubble_2.jpg","aphant","unmasked","2",-1.89711998488588,1.30109221562538
"p_359aaf68a73a6a7f","yes","yes",0.05,"2","Stimuli/Stimuli_Bubble/Food/GreenPepper_bubble_2.jpg","Food",0,0.2217,"yes",55,32,"facebook","aphantasia_facebook","Stimuli/Stimuli_Bubble/Food/GreenPepper_bubble_2.jpg","aphant","masked","2",-2.99573227355399,-0.490586918822914
"p_359aaf68a73a6a7f","yes","yes",0.15,"2","Stimuli/Stimuli_Bubble/Food/Eggplant_bubble_2.jpg","Food",1,0.6115,"yes",55,32,"facebook","aphantasia_facebook","Stimuli/Stimuli_Bubble/Food/Eggplant_bubble_2.jpg","aphant","masked","2",-1.89711998488588,1.30109221562538
"p_359aaf68a73a6a7f","yes","yes",0.05,"2","Stimuli/Stimuli_Bubble/Tools/Plunger_bubble_2.jpg","Tools",0,0.7187,"yes",55,32,"facebook","aphantasia_facebook","Stimuli/Stimuli_Bubble/Tools/Plunger_bubble_2.jpg","aphant","masked","2",-2.99573227355399,-0.490586918822914
"p_359aaf68a73a6a7f","yes","yes",0.075,"2","Stimuli/Stimuli_Bubble/Food/Biscuit_bubble_2.jpg","Food",0,0.1678,"yes",55,32,"facebook","aphantasia_facebook","Stimuli/Stimuli_Bubble/Food/Biscuit_bubble_2.jpg","aphant","masked","2",-2.59026716544583,0.170668540848797
"p_359aaf68a73a6a7f","yes","no",0.075,"2","Stimuli/Stimuli_Bubble/Tools/Shovel_bubble_2.jpg","Tools",1,0.7508,"yes",55,32,"facebook","aphantasia_facebook","Stimuli/Stimuli_Bubble/Tools/Shovel_bubble_2.jpg","aphant","unmasked","2",-2.59026716544583,0.170668540848797
"p_359aaf68a73a6a7f","yes","no",0.15,"2","Stimuli/Stimuli_Bubble/Food/Cupcake_bubble_2.jpg","Food",1,0.6201,"yes",55,32,"facebook","aphantasia_facebook","Stimuli/Stimuli_Bubble/Food/Cupcake_bubble_2.jpg","aphant","unmasked","2",-1.89711998488588,1.30109221562538
"p_359aaf68a73a6a7f","yes","yes",0.075,"2","Stimuli/Stimuli_Bubble/Tools/Grinder_bubble_2.jpg","Tools",0,1.5176,"yes",55,32,"facebook","aphantasia_facebook","Stimuli/Stimuli_Bubble/Tools/Grinder_bubble_2.jpg","aphant","masked","2",-2.59026716544583,0.170668540848797
"p_359aaf68a73a6a7f","yes","yes",0.075,"2","Stimuli/Stimuli_Bubble/Food/Cheese_bubble_2.jpg","Food",0,1.7793,"yes",55,32,"facebook","aphantasia_facebook","Stimuli/Stimuli_Bubble/Food/Cheese_bubble_2.jpg","aphant","masked","2",-2.59026716544583,0.170668540848797
"p_359aaf68a73a6a7f","yes","yes",0.15,"2","Stimuli/Stimuli_Bubble/Toys/Rattle_bubble_2.jpg","Toys",1,1.4032,"yes",55,32,"facebook","aphantasia_facebook","Stimuli/Stimuli_Bubble/Toys/Rattle_bubble_2.jpg","aphant","masked","2",-1.89711998488588,1.30109221562538
"p_359aaf68a73a6a7f","yes","yes",0.15,"2","Stimuli/Stimuli_Bubble/Toys/BathToys_bubble_2.jpg","Toys",1,0.7824,"yes",55,32,"facebook","aphantasia_facebook","Stimuli/Stimuli_Bubble/Toys/BathToys_bubble_2.jpg","aphant","masked","2",-1.89711998488588,1.30109221562538
"p_359aaf68a73a6a7f","yes","yes",0.15,"2","Stimuli/Stimuli_Bubble/Food/Apple_bubble_2.jpg","Food",0,1.6599,"yes",55,32,"facebook","aphantasia_facebook","Stimuli/Stimuli_Bubble/Food/Apple_bubble_2.jpg","aphant","masked","2",-1.89711998488588,1.30109221562538
"p_359aaf68a73a6a7f","yes","no",0.05,"2","Stimuli/Stimuli_Bubble/Food/Onion_bubble_2.jpg","Food",1,0.6667,"yes",55,32,"facebook","aphantasia_facebook","Stimuli/Stimuli_Bubble/Food/Onion_bubble_2.jpg","aphant","unmasked","2",-2.99573227355399,-0.490586918822914
"p_359aaf68a73a6a7f","yes","no",0.05,"2","Stimuli/Stimuli_Bubble/Food/Donut_bubble_2.jpg","Food",0,1.9355,"yes",55,32,"facebook","aphantasia_facebook","Stimuli/Stimuli_Bubble/Food/Donut_bubble_2.jpg","aphant","unmasked","2",-2.99573227355399,-0.490586918822914
"p_359aaf68a73a6a7f","yes","yes",0.05,"2","Stimuli/Stimuli_Bubble/Clothing/Skirt_bubble_2.jpg","Clothing",1,0.7991,"yes",55,32,"facebook","aphantasia_facebook","Stimuli/Stimuli_Bubble/Clothing/Skirt_bubble_2.jpg","aphant","masked","2",-2.99573227355399,-0.490586918822914
"p_359aaf68a73a6a7f","yes","yes",0.1,"2","Stimuli/Stimuli_Bubble/Food/Cabbage_bubble_2.jpg","Food",0,1.618,"yes",55,32,"facebook","aphantasia_facebook","Stimuli/Stimuli_Bubble/Food/Cabbage_bubble_2.jpg","aphant","masked","2",-2.30258509299405,0.639836755953673
"p_359aaf68a73a6a7f","yes","no",0.1,"2","Stimuli/Stimuli_Bubble/Clothing/Bikini_bubble_2.jpg","Clothing",1,0.8944,"yes",55,32,"facebook","aphantasia_facebook","Stimuli/Stimuli_Bubble/Clothing/Bikini_bubble_2.jpg","aphant","unmasked","2",-2.30258509299405,0.639836755953673
"p_359aaf68a73a6a7f","yes","no",0.075,"2","Stimuli/Stimuli_Bubble/Food/Cauliflower_bubble_2.jpg","Food",1,1.1479,"yes",55,32,"facebook","aphantasia_facebook","Stimuli/Stimuli_Bubble/Food/Cauliflower_bubble_2.jpg","aphant","unmasked","2",-2.59026716544583,0.170668540848797
"p_359aaf68a73a6a7f","yes","no",0.1,"2","Stimuli/Stimuli_Bubble/Food/Potato_bubble_2.jpg","Food",1,0.7691,"yes",55,32,"facebook","aphantasia_facebook","Stimuli/Stimuli_Bubble/Food/Potato_bubble_2.jpg","aphant","unmasked","2",-2.30258509299405,0.639836755953673
"p_359aaf68a73a6a7f","yes","no",0.1,"2","Stimuli/Stimuli_Bubble/Tools/LawnMower_bubble_2.jpg","Tools",1,0.6987,"yes",55,32,"facebook","aphantasia_facebook","Stimuli/Stimuli_Bubble/Tools/LawnMower_bubble_2.jpg","aphant","unmasked","2",-2.30258509299405,0.639836755953673
"p_359aaf68a73a6a7f","yes","yes",0.1,"2","Stimuli/Stimuli_Bubble/Clothing/Romper_bubble_2.jpg","Clothing",1,0.9255,"yes",55,32,"facebook","aphantasia_facebook","Stimuli/Stimuli_Bubble/Clothing/Romper_bubble_2.jpg","aphant","masked","2",-2.30258509299405,0.639836755953673
"p_359aaf68a73a6a7f","yes","no",0.075,"2","Stimuli/Stimuli_Bubble/Clothing/Raincoat_bubble_2.jpg","Clothing",1,1.1577,"yes",55,32,"facebook","aphantasia_facebook","Stimuli/Stimuli_Bubble/Clothing/Raincoat_bubble_2.jpg","aphant","unmasked","2",-2.59026716544583,0.170668540848797
"p_359aaf68a73a6a7f","yes","no",0.025,"2","Stimuli/Stimuli_Bubble/Food/Coconut_bubble_2.jpg","Food",0,0.6508,"yes",55,32,"facebook","aphantasia_facebook","Stimuli/Stimuli_Bubble/Food/Coconut_bubble_2.jpg","aphant","unmasked","2",-3.68887945411394,-1.6210105935995
"p_359aaf68a73a6a7f","yes","no",0.05,"2","Stimuli/Stimuli_Bubble/Toys/BaseballBat_bubble_2.jpg","Toys",0,0.8683,"yes",55,32,"facebook","aphantasia_facebook","Stimuli/Stimuli_Bubble/Toys/BaseballBat_bubble_2.jpg","aphant","unmasked","2",-2.99573227355399,-0.490586918822914
"p_359aaf68a73a6a7f","yes","yes",0.075,"2","Stimuli/Stimuli_Bubble/Tools/Chisel_bubble_2.jpg","Tools",1,1.1523,"yes",55,32,"facebook","aphantasia_facebook","Stimuli/Stimuli_Bubble/Tools/Chisel_bubble_2.jpg","aphant","masked","2",-2.59026716544583,0.170668540848797
"p_359aaf68a73a6a7f","yes","yes",0.05,"2","Stimuli/Stimuli_Bubble/Toys/BallInACup_bubble_2.jpg","Toys",0,2.6854,"yes",55,32,"facebook","aphantasia_facebook","Stimuli/Stimuli_Bubble/Toys/BallInACup_bubble_2.jpg","aphant","masked","2",-2.99573227355399,-0.490586918822914
"p_359aaf68a73a6a7f","yes","yes",0.1,"2","Stimuli/Stimuli_Bubble/Toys/Pinata_bubble_2.jpg","Toys",0,0.4995,"yes",55,32,"facebook","aphantasia_facebook","Stimuli/Stimuli_Bubble/Toys/Pinata_bubble_2.jpg","aphant","masked","2",-2.30258509299405,0.639836755953673
"p_359aaf68a73a6a7f","yes","yes",0.15,"2","Stimuli/Stimuli_Bubble/Tools/Blowtorch_bubble_2.jpg","Tools",1,0.7575,"yes",55,32,"facebook","aphantasia_facebook","Stimuli/Stimuli_Bubble/Tools/Blowtorch_bubble_2.jpg","aphant","masked","2",-1.89711998488588,1.30109221562538
"p_359aaf68a73a6a7f","yes","no",0.15,"2","Stimuli/Stimuli_Bubble/Food/Pancake_bubble_2.jpg","Food",0,1.3682,"yes",55,32,"facebook","aphantasia_facebook","Stimuli/Stimuli_Bubble/Food/Pancake_bubble_2.jpg","aphant","unmasked","2",-1.89711998488588,1.30109221562538
"p_359aaf68a73a6a7f","yes","no",0.025,"2","Stimuli/Stimuli_Bubble/Food/Omelette_bubble_2.jpg","Food",0,0.8766,"yes",55,32,"facebook","aphantasia_facebook","Stimuli/Stimuli_Bubble/Food/Omelette_bubble_2.jpg","aphant","unmasked","2",-3.68887945411394,-1.6210105935995
"p_359aaf68a73a6a7f","yes","yes",0.025,"2","Stimuli/Stimuli_Bubble/Food/Fries_bubble_2.jpg","Food",0,1.0411,"yes",55,32,"facebook","aphantasia_facebook","Stimuli/Stimuli_Bubble/Food/Fries_bubble_2.jpg","aphant","masked","2",-3.68887945411394,-1.6210105935995
"p_359aaf68a73a6a7f","yes","no",0.025,"2","Stimuli/Stimuli_Bubble/Clothing/Sweatpants_bubble_2.jpg","Clothing",1,0.7262,"yes",55,32,"facebook","aphantasia_facebook","Stimuli/Stimuli_Bubble/Clothing/Sweatpants_bubble_2.jpg","aphant","unmasked","2",-3.68887945411394,-1.6210105935995
"p_359aaf68a73a6a7f","yes","no",0.075,"2","Stimuli/Stimuli_Bubble/Food/Lemon_bubble_2.jpg","Food",0,1.4577,"yes",55,32,"facebook","aphantasia_facebook","Stimuli/Stimuli_Bubble/Food/Lemon_bubble_2.jpg","aphant","unmasked","2",-2.59026716544583,0.170668540848797
"p_359aaf68a73a6a7f","yes","yes",0.025,"2","Stimuli/Stimuli_Bubble/Toys/Skateboard_bubble_2.jpg","Toys",0,1.1337,"yes",55,32,"facebook","aphantasia_facebook","Stimuli/Stimuli_Bubble/Toys/Skateboard_bubble_2.jpg","aphant","masked","2",-3.68887945411394,-1.6210105935995
"p_359aaf68a73a6a7f","yes","no",0.1,"2","Stimuli/Stimuli_Bubble/Clothing/SnowCoat_bubble_2.jpg","Clothing",1,1.0965,"yes",55,32,"facebook","aphantasia_facebook","Stimuli/Stimuli_Bubble/Clothing/SnowCoat_bubble_2.jpg","aphant","unmasked","2",-2.30258509299405,0.639836755953673
"p_359aaf68a73a6a7f","yes","yes",0.025,"2","Stimuli/Stimuli_Bubble/Food/Cake_bubble_2.jpg","Food",0,0.9691,"yes",55,32,"facebook","aphantasia_facebook","Stimuli/Stimuli_Bubble/Food/Cake_bubble_2.jpg","aphant","masked","2",-3.68887945411394,-1.6210105935995
"p_359aaf68a73a6a7f","yes","no",0.075,"2","Stimuli/Stimuli_Bubble/Tools/PowerDrill_bubble_2.jpg","Tools",0,1.1404,"yes",55,32,"facebook","aphantasia_facebook","Stimuli/Stimuli_Bubble/Tools/PowerDrill_bubble_2.jpg","aphant","unmasked","2",-2.59026716544583,0.170668540848797
"p_359aaf68a73a6a7f","yes","yes",0.075,"2","Stimuli/Stimuli_Bubble/Food/Pumpkin_bubble_2.jpg","Food",0,0.8833,"yes",55,32,"facebook","aphantasia_facebook","Stimuli/Stimuli_Bubble/Food/Pumpkin_bubble_2.jpg","aphant","masked","2",-2.59026716544583,0.170668540848797
"p_359aaf68a73a6a7f","yes","no",0.05,"2","Stimuli/Stimuli_Bubble/Toys/Slide_bubble_2.jpg","Toys",0,0.5179,"yes",55,32,"facebook","aphantasia_facebook","Stimuli/Stimuli_Bubble/Toys/Slide_bubble_2.jpg","aphant","unmasked","2",-2.99573227355399,-0.490586918822914
"p_359aaf68a73a6a7f","yes","no",0.025,"2","Stimuli/Stimuli_Bubble/Tools/GardenHose_bubble_2.jpg","Tools",1,0.7175,"yes",55,32,"facebook","aphantasia_facebook","Stimuli/Stimuli_Bubble/Tools/GardenHose_bubble_2.jpg","aphant","unmasked","2",-3.68887945411394,-1.6210105935995
"p_359aaf68a73a6a7f","yes","yes",0.05,"2","Stimuli/Stimuli_Bubble/Tools/ClampBar_bubble_2.jpg","Tools",0,1.1662,"yes",55,32,"facebook","aphantasia_facebook","Stimuli/Stimuli_Bubble/Tools/ClampBar_bubble_2.jpg","aphant","masked","2",-2.99573227355399,-0.490586918822914
"p_359aaf68a73a6a7f","yes","yes",0.05,"2","Stimuli/Stimuli_Bubble/Clothing/Onesie_bubble_2.jpg","Clothing",0,0.8324,"yes",55,32,"facebook","aphantasia_facebook","Stimuli/Stimuli_Bubble/Clothing/Onesie_bubble_2.jpg","aphant","masked","2",-2.99573227355399,-0.490586918822914
"p_359aaf68a73a6a7f","yes","no",0.1,"2","Stimuli/Stimuli_Bubble/Food/Orange_bubble_2.jpg","Food",1,0.8138,"yes",55,32,"facebook","aphantasia_facebook","Stimuli/Stimuli_Bubble/Food/Orange_bubble_2.jpg","aphant","unmasked","2",-2.30258509299405,0.639836755953673
"p_359aaf68a73a6a7f","yes","no",0.05,"2","Stimuli/Stimuli_Bubble/Clothing/Socks_bubble_2.jpg","Clothing",1,0.6674,"yes",55,32,"facebook","aphantasia_facebook","Stimuli/Stimuli_Bubble/Clothing/Socks_bubble_2.jpg","aphant","unmasked","2",-2.99573227355399,-0.490586918822914
"p_359aaf68a73a6a7f","yes","yes",0.15,"2","Stimuli/Stimuli_Bubble/Clothing/Gloves_bubble_2.jpg","Clothing",1,1.052,"yes",55,32,"facebook","aphantasia_facebook","Stimuli/Stimuli_Bubble/Clothing/Gloves_bubble_2.jpg","aphant","masked","2",-1.89711998488588,1.30109221562538
"p_359aaf68a73a6a7f","yes","no",0.025,"2","Stimuli/Stimuli_Bubble/Tools/Pipe_bubble_2.jpg","Tools",0,1.7401,"yes",55,32,"facebook","aphantasia_facebook","Stimuli/Stimuli_Bubble/Tools/Pipe_bubble_2.jpg","aphant","unmasked","2",-3.68887945411394,-1.6210105935995
"p_359aaf68a73a6a7f","yes","yes",0.075,"2","Stimuli/Stimuli_Bubble/Clothing/Hoodie_bubble_2.jpg","Clothing",1,0.785,"yes",55,32,"facebook","aphantasia_facebook","Stimuli/Stimuli_Bubble/Clothing/Hoodie_bubble_2.jpg","aphant","masked","2",-2.59026716544583,0.170668540848797
"p_359aaf68a73a6a7f","yes","no",0.025,"2","Stimuli/Stimuli_Bubble/Clothing/HaremPants_bubble_2.jpg","Clothing",1,0.4694,"yes",55,32,"facebook","aphantasia_facebook","Stimuli/Stimuli_Bubble/Clothing/HaremPants_bubble_2.jpg","aphant","unmasked","2",-3.68887945411394,-1.6210105935995
"p_359aaf68a73a6a7f","yes","yes",0.1,"2","Stimuli/Stimuli_Bubble/Tools/Ratchet_bubble_2.jpg","Tools",1,0.45,"yes",55,32,"facebook","aphantasia_facebook","Stimuli/Stimuli_Bubble/Tools/Ratchet_bubble_2.jpg","aphant","masked","2",-2.30258509299405,0.639836755953673
"p_359aaf68a73a6a7f","yes","no",0.1,"2","Stimuli/Stimuli_Bubble/Toys/Balloon_bubble_2.jpg","Toys",0,0.4428,"yes",55,32,"facebook","aphantasia_facebook","Stimuli/Stimuli_Bubble/Toys/Balloon_bubble_2.jpg","aphant","unmasked","2",-2.30258509299405,0.639836755953673
"p_359aaf68a73a6a7f","yes","no",0.1,"2","Stimuli/Stimuli_Bubble/Food/Melon_bubble_2.jpg","Food",1,0.5446,"yes",55,32,"facebook","aphantasia_facebook","Stimuli/Stimuli_Bubble/Food/Melon_bubble_2.jpg","aphant","unmasked","2",-2.30258509299405,0.639836755953673
"p_359aaf68a73a6a7f","yes","no",0.05,"2","Stimuli/Stimuli_Bubble/Tools/Flashlight_bubble_2.jpg","Tools",1,0.5873,"yes",55,32,"facebook","aphantasia_facebook","Stimuli/Stimuli_Bubble/Tools/Flashlight_bubble_2.jpg","aphant","unmasked","2",-2.99573227355399,-0.490586918822914
"p_359aaf68a73a6a7f","yes","yes",0.05,"2","Stimuli/Stimuli_Bubble/Tools/Screw_bubble_2.jpg","Tools",1,0.5807,"yes",55,32,"facebook","aphantasia_facebook","Stimuli/Stimuli_Bubble/Tools/Screw_bubble_2.jpg","aphant","masked","2",-2.99573227355399,-0.490586918822914
"p_359aaf68a73a6a7f","yes","yes",0.05,"2","Stimuli/Stimuli_Bubble/Toys/EtchASketch_bubble_2.jpg","Toys",0,0.7434,"yes",55,32,"facebook","aphantasia_facebook","Stimuli/Stimuli_Bubble/Toys/EtchASketch_bubble_2.jpg","aphant","masked","2",-2.99573227355399,-0.490586918822914
"p_359aaf68a73a6a7f","yes","yes",0.025,"2","Stimuli/Stimuli_Bubble/Tools/SafetyGlasses_bubble_2.jpg","Tools",0,1.4126,"yes",55,32,"facebook","aphantasia_facebook","Stimuli/Stimuli_Bubble/Tools/SafetyGlasses_bubble_2.jpg","aphant","masked","2",-3.68887945411394,-1.6210105935995
"p_359aaf68a73a6a7f","yes","yes",0.1,"2","Stimuli/Stimuli_Bubble/Clothing/Swimsuit_bubble_2.jpg","Clothing",1,1.3509,"yes",55,32,"facebook","aphantasia_facebook","Stimuli/Stimuli_Bubble/Clothing/Swimsuit_bubble_2.jpg","aphant","masked","2",-2.30258509299405,0.639836755953673
"p_359aaf68a73a6a7f","yes","yes",0.1,"2","Stimuli/Stimuli_Bubble/Tools/HackSaw_bubble_2.jpg","Tools",0,1.1446,"yes",55,32,"facebook","aphantasia_facebook","Stimuli/Stimuli_Bubble/Tools/HackSaw_bubble_2.jpg","aphant","masked","2",-2.30258509299405,0.639836755953673
"p_359aaf68a73a6a7f","yes","yes",0.075,"2","Stimuli/Stimuli_Bubble/Tools/Saw_bubble_2.jpg","Tools",0,0.721,"yes",55,32,"facebook","aphantasia_facebook","Stimuli/Stimuli_Bubble/Tools/Saw_bubble_2.jpg","aphant","masked","2",-2.59026716544583,0.170668540848797
"p_359aaf68a73a6a7f","yes","no",0.05,"2","Stimuli/Stimuli_Bubble/Clothing/Hat_bubble_2.jpg","Clothing",1,0.6013,"yes",55,32,"facebook","aphantasia_facebook","Stimuli/Stimuli_Bubble/Clothing/Hat_bubble_2.jpg","aphant","unmasked","2",-2.99573227355399,-0.490586918822914
"p_359aaf68a73a6a7f","yes","no",0.05,"2","Stimuli/Stimuli_Bubble/Food/Broccoli_bubble_2.jpg","Food",1,0.9184,"yes",55,32,"facebook","aphantasia_facebook","Stimuli/Stimuli_Bubble/Food/Broccoli_bubble_2.jpg","aphant","unmasked","2",-2.99573227355399,-0.490586918822914
"p_359aaf68a73a6a7f","yes","no",0.15,"2","Stimuli/Stimuli_Bubble/Toys/Slinky_bubble_2.jpg","Toys",1,1.3093,"yes",55,32,"facebook","aphantasia_facebook","Stimuli/Stimuli_Bubble/Toys/Slinky_bubble_2.jpg","aphant","unmasked","2",-1.89711998488588,1.30109221562538
"p_359aaf68a73a6a7f","yes","no",0.025,"2","Stimuli/Stimuli_Bubble/Toys/StackingLoops_bubble_2.jpg","Toys",0,1.1022,"yes",55,32,"facebook","aphantasia_facebook","Stimuli/Stimuli_Bubble/Toys/StackingLoops_bubble_2.jpg","aphant","unmasked","2",-3.68887945411394,-1.6210105935995
"p_359aaf68a73a6a7f","yes","yes",0.025,"2","Stimuli/Stimuli_Bubble/Clothing/LeatherJacket_bubble_2.jpg","Clothing",1,0.102,"yes",55,32,"facebook","aphantasia_facebook","Stimuli/Stimuli_Bubble/Clothing/LeatherJacket_bubble_2.jpg","aphant","masked","2",-3.68887945411394,-1.6210105935995
"p_359aaf68a73a6a7f","yes","yes",0.075,"2","Stimuli/Stimuli_Bubble/Clothing/BaseballCap_bubble_2.jpg","Clothing",1,1.1001,"yes",55,32,"facebook","aphantasia_facebook","Stimuli/Stimuli_Bubble/Clothing/BaseballCap_bubble_2.jpg","aphant","masked","2",-2.59026716544583,0.170668540848797
"p_359aaf68a73a6a7f","yes","yes",0.1,"2","Stimuli/Stimuli_Bubble/Food/Pear_bubble_2.jpg","Food",0,0.9075,"yes",55,32,"facebook","aphantasia_facebook","Stimuli/Stimuli_Bubble/Food/Pear_bubble_2.jpg","aphant","masked","2",-2.30258509299405,0.639836755953673
"p_359aaf68a73a6a7f","yes","no",0.15,"2","Stimuli/Stimuli_Bubble/Clothing/PajamaBottoms_bubble_2.jpg","Clothing",1,0.804,"yes",55,32,"facebook","aphantasia_facebook","Stimuli/Stimuli_Bubble/Clothing/PajamaBottoms_bubble_2.jpg","aphant","unmasked","2",-1.89711998488588,1.30109221562538
"p_359aaf68a73a6a7f","yes","yes",0.1,"2","Stimuli/Stimuli_Bubble/Food/IceCream_bubble_2.jpg","Food",0,1.3936,"yes",55,32,"facebook","aphantasia_facebook","Stimuli/Stimuli_Bubble/Food/IceCream_bubble_2.jpg","aphant","masked","2",-2.30258509299405,0.639836755953673
"p_359aaf68a73a6a7f","yes","yes",0.05,"2","Stimuli/Stimuli_Bubble/Clothing/Shorts_bubble_2.jpg","Clothing",1,1.6431,"yes",55,32,"facebook","aphantasia_facebook","Stimuli/Stimuli_Bubble/Clothing/Shorts_bubble_2.jpg","aphant","masked","2",-2.99573227355399,-0.490586918822914
"p_359aaf68a73a6a7f","yes","yes",0.025,"2","Stimuli/Stimuli_Bubble/Toys/SkippingRope_bubble_2.jpg","Toys",0,0.7999,"yes",55,32,"facebook","aphantasia_facebook","Stimuli/Stimuli_Bubble/Toys/SkippingRope_bubble_2.jpg","aphant","masked","2",-3.68887945411394,-1.6210105935995
"p_359aaf68a73a6a7f","yes","no",0.075,"2","Stimuli/Stimuli_Bubble/Toys/SandToy_bubble_2.jpg","Toys",0,1.2787,"yes",55,32,"facebook","aphantasia_facebook","Stimuli/Stimuli_Bubble/Toys/SandToy_bubble_2.jpg","aphant","unmasked","2",-2.59026716544583,0.170668540848797
"p_359aaf68a73a6a7f","yes","no",0.075,"2","Stimuli/Stimuli_Bubble/Food/Chocolate_bubble_2.jpg","Food",0,1.0842,"yes",55,32,"facebook","aphantasia_facebook","Stimuli/Stimuli_Bubble/Food/Chocolate_bubble_2.jpg","aphant","unmasked","2",-2.59026716544583,0.170668540848797
"p_359aaf68a73a6a7f","yes","yes",0.05,"2","Stimuli/Stimuli_Bubble/Toys/SpinningTop_bubble_2.jpg","Toys",1,1.6994,"yes",55,32,"facebook","aphantasia_facebook","Stimuli/Stimuli_Bubble/Toys/SpinningTop_bubble_2.jpg","aphant","masked","2",-2.99573227355399,-0.490586918822914
"p_359aaf68a73a6a7f","yes","no",0.075,"2","Stimuli/Stimuli_Bubble/Clothing/Boxers_bubble_2.jpg","Clothing",1,1.499,"yes",55,32,"facebook","aphantasia_facebook","Stimuli/Stimuli_Bubble/Clothing/Boxers_bubble_2.jpg","aphant","unmasked","2",-2.59026716544583,0.170668540848797
"p_359aaf68a73a6a7f","yes","yes",0.025,"2","Stimuli/Stimuli_Bubble/Food/Beetroot_bubble_2.jpg","Food",0,1.6277,"yes",55,32,"facebook","aphantasia_facebook","Stimuli/Stimuli_Bubble/Food/Beetroot_bubble_2.jpg","aphant","masked","2",-3.68887945411394,-1.6210105935995
"p_359aaf68a73a6a7f","yes","no",0.05,"2","Stimuli/Stimuli_Bubble/Clothing/Dress_bubble_2.jpg","Clothing",1,0.7634,"yes",55,32,"facebook","aphantasia_facebook","Stimuli/Stimuli_Bubble/Clothing/Dress_bubble_2.jpg","aphant","unmasked","2",-2.99573227355399,-0.490586918822914
"p_359aaf68a73a6a7f","yes","yes",0.1,"2","Stimuli/Stimuli_Bubble/Toys/Blanket_bubble_2.jpg","Toys",0,0.7686,"yes",55,32,"facebook","aphantasia_facebook","Stimuli/Stimuli_Bubble/Toys/Blanket_bubble_2.jpg","aphant","masked","2",-2.30258509299405,0.639836755953673
"p_359aaf68a73a6a7f","yes","yes",0.075,"2","Stimuli/Stimuli_Bubble/Toys/BlockBucket_bubble_2.jpg","Toys",0,0.6931,"yes",55,32,"facebook","aphantasia_facebook","Stimuli/Stimuli_Bubble/Toys/BlockBucket_bubble_2.jpg","aphant","masked","2",-2.59026716544583,0.170668540848797
"p_359aaf68a73a6a7f","yes","no",0.05,"2","Stimuli/Stimuli_Bubble/Toys/Dinosaur_bubble_2.jpg","Toys",1,0.9339,"yes",55,32,"facebook","aphantasia_facebook","Stimuli/Stimuli_Bubble/Toys/Dinosaur_bubble_2.jpg","aphant","unmasked","2",-2.99573227355399,-0.490586918822914
"p_6e29a00f3e8415e3","yes","no",0.05,"2","Stimuli/Stimuli_Bubble/Clothing/PajamaBottoms_bubble_2.jpg","Clothing",1,2.8813,"yes",39,32,"facebook","aphantasia_facebook","Stimuli/Stimuli_Bubble/Clothing/PajamaBottoms_bubble_2.jpg","aphant","unmasked","2",-2.99573227355399,-0.490586918822914
"p_6e29a00f3e8415e3","yes","no",0.05,"2","Stimuli/Stimuli_Bubble/Tools/Chisel_bubble_2.jpg","Tools",1,1.1547,"yes",39,32,"facebook","aphantasia_facebook","Stimuli/Stimuli_Bubble/Tools/Chisel_bubble_2.jpg","aphant","unmasked","2",-2.99573227355399,-0.490586918822914
"p_6e29a00f3e8415e3","yes","no",0.1,"2","Stimuli/Stimuli_Bubble/Toys/StuffedRabbit_bubble_2.jpg","Toys",0,0.7684,"yes",39,32,"facebook","aphantasia_facebook","Stimuli/Stimuli_Bubble/Toys/StuffedRabbit_bubble_2.jpg","aphant","unmasked","2",-2.30258509299405,0.639836755953673
"p_6e29a00f3e8415e3","yes","no",0.05,"2","Stimuli/Stimuli_Bubble/Tools/PaintBrush_bubble_2.jpg","Tools",0,0.5617,"yes",39,32,"facebook","aphantasia_facebook","Stimuli/Stimuli_Bubble/Tools/PaintBrush_bubble_2.jpg","aphant","unmasked","2",-2.99573227355399,-0.490586918822914
"p_6e29a00f3e8415e3","yes","yes",0.05,"2","Stimuli/Stimuli_Bubble/Clothing/Romper_bubble_2.jpg","Clothing",1,1.646,"yes",39,32,"facebook","aphantasia_facebook","Stimuli/Stimuli_Bubble/Clothing/Romper_bubble_2.jpg","aphant","masked","2",-2.99573227355399,-0.490586918822914
"p_6e29a00f3e8415e3","yes","yes",0.15,"2","Stimuli/Stimuli_Bubble/Tools/PipeWrench_bubble_2.jpg","Tools",1,0.0539,"yes",39,32,"facebook","aphantasia_facebook","Stimuli/Stimuli_Bubble/Tools/PipeWrench_bubble_2.jpg","aphant","masked","2",-1.89711998488588,1.30109221562538
"p_6e29a00f3e8415e3","yes","yes",0.025,"2","Stimuli/Stimuli_Bubble/Toys/BaseballBat_bubble_2.jpg","Toys",1,1.2176,"yes",39,32,"facebook","aphantasia_facebook","Stimuli/Stimuli_Bubble/Toys/BaseballBat_bubble_2.jpg","aphant","masked","2",-3.68887945411394,-1.6210105935995
"p_6e29a00f3e8415e3","yes","yes",0.15,"2","Stimuli/Stimuli_Bubble/Toys/ToyCar_bubble_2.jpg","Toys",1,0.9757,"yes",39,32,"facebook","aphantasia_facebook","Stimuli/Stimuli_Bubble/Toys/ToyCar_bubble_2.jpg","aphant","masked","2",-1.89711998488588,1.30109221562538
"p_6e29a00f3e8415e3","yes","no",0.1,"2","Stimuli/Stimuli_Bubble/Clothing/Hoodie_bubble_2.jpg","Clothing",1,0.8357,"yes",39,32,"facebook","aphantasia_facebook","Stimuli/Stimuli_Bubble/Clothing/Hoodie_bubble_2.jpg","aphant","unmasked","2",-2.30258509299405,0.639836755953673
"p_6e29a00f3e8415e3","yes","yes",0.1,"2","Stimuli/Stimuli_Bubble/Toys/JackInTheBox_bubble_2.jpg","Toys",0,1.7876,"yes",39,32,"facebook","aphantasia_facebook","Stimuli/Stimuli_Bubble/Toys/JackInTheBox_bubble_2.jpg","aphant","masked","2",-2.30258509299405,0.639836755953673
"p_6e29a00f3e8415e3","yes","no",0.075,"2","Stimuli/Stimuli_Bubble/Toys/ActivityGym_bubble_2.jpg","Toys",1,1.0935,"yes",39,32,"facebook","aphantasia_facebook","Stimuli/Stimuli_Bubble/Toys/ActivityGym_bubble_2.jpg","aphant","unmasked","2",-2.59026716544583,0.170668540848797
"p_6e29a00f3e8415e3","yes","no",0.075,"2","Stimuli/Stimuli_Bubble/Food/Bagel_bubble_2.jpg","Food",0,1.5347,"yes",39,32,"facebook","aphantasia_facebook","Stimuli/Stimuli_Bubble/Food/Bagel_bubble_2.jpg","aphant","unmasked","2",-2.59026716544583,0.170668540848797
"p_6e29a00f3e8415e3","yes","yes",0.05,"2","Stimuli/Stimuli_Bubble/Food/Fries_bubble_2.jpg","Food",0,1.3377,"yes",39,32,"facebook","aphantasia_facebook","Stimuli/Stimuli_Bubble/Food/Fries_bubble_2.jpg","aphant","masked","2",-2.99573227355399,-0.490586918822914
"p_6e29a00f3e8415e3","yes","yes",0.025,"2","Stimuli/Stimuli_Bubble/Tools/BlacksmithTongs_bubble_2.jpg","Tools",0,3.2334,"yes",39,32,"facebook","aphantasia_facebook","Stimuli/Stimuli_Bubble/Tools/BlacksmithTongs_bubble_2.jpg","aphant","masked","2",-3.68887945411394,-1.6210105935995
"p_6e29a00f3e8415e3","yes","yes",0.1,"2","Stimuli/Stimuli_Bubble/Clothing/Sweatpants_bubble_2.jpg","Clothing",0,1.2111,"yes",39,32,"facebook","aphantasia_facebook","Stimuli/Stimuli_Bubble/Clothing/Sweatpants_bubble_2.jpg","aphant","masked","2",-2.30258509299405,0.639836755953673
"p_6e29a00f3e8415e3","yes","no",0.025,"2","Stimuli/Stimuli_Bubble/Toys/Float_bubble_2.jpg","Toys",0,2.4339,"yes",39,32,"facebook","aphantasia_facebook","Stimuli/Stimuli_Bubble/Toys/Float_bubble_2.jpg","aphant","unmasked","2",-3.68887945411394,-1.6210105935995
"p_6e29a00f3e8415e3","yes","no",0.025,"2","Stimuli/Stimuli_Bubble/Tools/ChopSaw_bubble_2.jpg","Tools",1,2.7354,"yes",39,32,"facebook","aphantasia_facebook","Stimuli/Stimuli_Bubble/Tools/ChopSaw_bubble_2.jpg","aphant","unmasked","2",-3.68887945411394,-1.6210105935995
"p_6e29a00f3e8415e3","yes","no",0.05,"2","Stimuli/Stimuli_Bubble/Tools/SafetyGlasses_bubble_2.jpg","Tools",1,2.5567,"yes",39,32,"facebook","aphantasia_facebook","Stimuli/Stimuli_Bubble/Tools/SafetyGlasses_bubble_2.jpg","aphant","unmasked","2",-2.99573227355399,-0.490586918822914
"p_6e29a00f3e8415e3","yes","yes",0.15,"2","Stimuli/Stimuli_Bubble/Toys/SandToy_bubble_2.jpg","Toys",0,2.0005,"yes",39,32,"facebook","aphantasia_facebook","Stimuli/Stimuli_Bubble/Toys/SandToy_bubble_2.jpg","aphant","masked","2",-1.89711998488588,1.30109221562538
"p_6e29a00f3e8415e3","yes","no",0.05,"2","Stimuli/Stimuli_Bubble/Food/Pear_bubble_2.jpg","Food",0,0.7887,"yes",39,32,"facebook","aphantasia_facebook","Stimuli/Stimuli_Bubble/Food/Pear_bubble_2.jpg","aphant","unmasked","2",-2.99573227355399,-0.490586918822914
"p_6e29a00f3e8415e3","yes","no",0.075,"2","Stimuli/Stimuli_Bubble/Food/Biscuit_bubble_2.jpg","Food",1,1.4582,"yes",39,32,"facebook","aphantasia_facebook","Stimuli/Stimuli_Bubble/Food/Biscuit_bubble_2.jpg","aphant","unmasked","2",-2.59026716544583,0.170668540848797
"p_6e29a00f3e8415e3","yes","no",0.1,"2","Stimuli/Stimuli_Bubble/Toys/Doll_bubble_2.jpg","Toys",1,1.5565,"yes",39,32,"facebook","aphantasia_facebook","Stimuli/Stimuli_Bubble/Toys/Doll_bubble_2.jpg","aphant","unmasked","2",-2.30258509299405,0.639836755953673
"p_6e29a00f3e8415e3","yes","yes",0.025,"2","Stimuli/Stimuli_Bubble/Clothing/Sweater_bubble_2.jpg","Clothing",1,2.2406,"yes",39,32,"facebook","aphantasia_facebook","Stimuli/Stimuli_Bubble/Clothing/Sweater_bubble_2.jpg","aphant","masked","2",-3.68887945411394,-1.6210105935995
"p_6e29a00f3e8415e3","yes","yes",0.1,"2","Stimuli/Stimuli_Bubble/Toys/SpinningTop_bubble_2.jpg","Toys",1,1.1465,"yes",39,32,"facebook","aphantasia_facebook","Stimuli/Stimuli_Bubble/Toys/SpinningTop_bubble_2.jpg","aphant","masked","2",-2.30258509299405,0.639836755953673
"p_6e29a00f3e8415e3","yes","yes",0.1,"2","Stimuli/Stimuli_Bubble/Food/Cake_bubble_2.jpg","Food",0,0.7302,"yes",39,32,"facebook","aphantasia_facebook","Stimuli/Stimuli_Bubble/Food/Cake_bubble_2.jpg","aphant","masked","2",-2.30258509299405,0.639836755953673
"p_6e29a00f3e8415e3","yes","no",0.1,"2","Stimuli/Stimuli_Bubble/Food/Coconut_bubble_2.jpg","Food",1,2.0961,"yes",39,32,"facebook","aphantasia_facebook","Stimuli/Stimuli_Bubble/Food/Coconut_bubble_2.jpg","aphant","unmasked","2",-2.30258509299405,0.639836755953673
"p_6e29a00f3e8415e3","yes","no",0.1,"2","Stimuli/Stimuli_Bubble/Food/Cookie_bubble_2.jpg","Food",1,0.9002,"yes",39,32,"facebook","aphantasia_facebook","Stimuli/Stimuli_Bubble/Food/Cookie_bubble_2.jpg","aphant","unmasked","2",-2.30258509299405,0.639836755953673
"p_6e29a00f3e8415e3","yes","yes",0.15,"2","Stimuli/Stimuli_Bubble/Clothing/Skirt_bubble_2.jpg","Clothing",0,3.1171,"yes",39,32,"facebook","aphantasia_facebook","Stimuli/Stimuli_Bubble/Clothing/Skirt_bubble_2.jpg","aphant","masked","2",-1.89711998488588,1.30109221562538
"p_6e29a00f3e8415e3","yes","no",0.075,"2","Stimuli/Stimuli_Bubble/Clothing/BaseballCap_bubble_2.jpg","Clothing",1,1.113,"yes",39,32,"facebook","aphantasia_facebook","Stimuli/Stimuli_Bubble/Clothing/BaseballCap_bubble_2.jpg","aphant","unmasked","2",-2.59026716544583,0.170668540848797
"p_6e29a00f3e8415e3","yes","no",0.025,"2","Stimuli/Stimuli_Bubble/Clothing/Panties_bubble_2.jpg","Clothing",1,2.1074,"yes",39,32,"facebook","aphantasia_facebook","Stimuli/Stimuli_Bubble/Clothing/Panties_bubble_2.jpg","aphant","unmasked","2",-3.68887945411394,-1.6210105935995
"p_6e29a00f3e8415e3","yes","yes",0.1,"2","Stimuli/Stimuli_Bubble/Food/Burger_bubble_2.jpg","Food",0,0.7102,"yes",39,32,"facebook","aphantasia_facebook","Stimuli/Stimuli_Bubble/Food/Burger_bubble_2.jpg","aphant","masked","2",-2.30258509299405,0.639836755953673
"p_6e29a00f3e8415e3","yes","yes",0.075,"2","Stimuli/Stimuli_Bubble/Clothing/Jeans_bubble_2.jpg","Clothing",1,0.6002,"yes",39,32,"facebook","aphantasia_facebook","Stimuli/Stimuli_Bubble/Clothing/Jeans_bubble_2.jpg","aphant","masked","2",-2.59026716544583,0.170668540848797
"p_6e29a00f3e8415e3","yes","yes",0.075,"2","Stimuli/Stimuli_Bubble/Toys/SkippingRope_bubble_2.jpg","Toys",0,2.3741,"yes",39,32,"facebook","aphantasia_facebook","Stimuli/Stimuli_Bubble/Toys/SkippingRope_bubble_2.jpg","aphant","masked","2",-2.59026716544583,0.170668540848797
"p_6e29a00f3e8415e3","yes","no",0.025,"2","Stimuli/Stimuli_Bubble/Food/Chocolate_bubble_2.jpg","Food",1,1.0112,"yes",39,32,"facebook","aphantasia_facebook","Stimuli/Stimuli_Bubble/Food/Chocolate_bubble_2.jpg","aphant","unmasked","2",-3.68887945411394,-1.6210105935995
"p_6e29a00f3e8415e3","yes","no",0.025,"2","Stimuli/Stimuli_Bubble/Tools/ClampBar_bubble_2.jpg","Tools",0,0.589,"yes",39,32,"facebook","aphantasia_facebook","Stimuli/Stimuli_Bubble/Tools/ClampBar_bubble_2.jpg","aphant","unmasked","2",-3.68887945411394,-1.6210105935995
"p_6e29a00f3e8415e3","yes","no",0.025,"2","Stimuli/Stimuli_Bubble/Toys/Blanket_bubble_2.jpg","Toys",0,0.779,"yes",39,32,"facebook","aphantasia_facebook","Stimuli/Stimuli_Bubble/Toys/Blanket_bubble_2.jpg","aphant","unmasked","2",-3.68887945411394,-1.6210105935995
"p_6e29a00f3e8415e3","yes","yes",0.15,"2","Stimuli/Stimuli_Bubble/Clothing/Gumboots_bubble_2.jpg","Clothing",1,0.8783,"yes",39,32,"facebook","aphantasia_facebook","Stimuli/Stimuli_Bubble/Clothing/Gumboots_bubble_2.jpg","aphant","masked","2",-1.89711998488588,1.30109221562538
"p_6e29a00f3e8415e3","yes","no",0.075,"2","Stimuli/Stimuli_Bubble/Toys/StuffedOwl_bubble_2.jpg","Toys",0,0.9377,"yes",39,32,"facebook","aphantasia_facebook","Stimuli/Stimuli_Bubble/Toys/StuffedOwl_bubble_2.jpg","aphant","unmasked","2",-2.59026716544583,0.170668540848797
"p_6e29a00f3e8415e3","yes","no",0.025,"2","Stimuli/Stimuli_Bubble/Clothing/Belt_bubble_2.jpg","Clothing",0,0.603,"yes",39,32,"facebook","aphantasia_facebook","Stimuli/Stimuli_Bubble/Clothing/Belt_bubble_2.jpg","aphant","unmasked","2",-3.68887945411394,-1.6210105935995
"p_6e29a00f3e8415e3","yes","no",0.075,"2","Stimuli/Stimuli_Bubble/Tools/Bolt_bubble_2.jpg","Tools",1,0.9005,"yes",39,32,"facebook","aphantasia_facebook","Stimuli/Stimuli_Bubble/Tools/Bolt_bubble_2.jpg","aphant","unmasked","2",-2.59026716544583,0.170668540848797
"p_6e29a00f3e8415e3","yes","no",0.075,"2","Stimuli/Stimuli_Bubble/Clothing/Raincoat_bubble_2.jpg","Clothing",0,0.4563,"yes",39,32,"facebook","aphantasia_facebook","Stimuli/Stimuli_Bubble/Clothing/Raincoat_bubble_2.jpg","aphant","unmasked","2",-2.59026716544583,0.170668540848797
"p_6e29a00f3e8415e3","yes","yes",0.075,"2","Stimuli/Stimuli_Bubble/Tools/Shovel_bubble_2.jpg","Tools",1,1.3177,"yes",39,32,"facebook","aphantasia_facebook","Stimuli/Stimuli_Bubble/Tools/Shovel_bubble_2.jpg","aphant","masked","2",-2.59026716544583,0.170668540848797
"p_6e29a00f3e8415e3","yes","no",0.15,"2","Stimuli/Stimuli_Bubble/Food/Pizza_bubble_2.jpg","Food",1,1.1735,"yes",39,32,"facebook","aphantasia_facebook","Stimuli/Stimuli_Bubble/Food/Pizza_bubble_2.jpg","aphant","unmasked","2",-1.89711998488588,1.30109221562538
"p_6e29a00f3e8415e3","yes","no",0.1,"2","Stimuli/Stimuli_Bubble/Clothing/Overalls_bubble_2.jpg","Clothing",1,0.6088,"yes",39,32,"facebook","aphantasia_facebook","Stimuli/Stimuli_Bubble/Clothing/Overalls_bubble_2.jpg","aphant","unmasked","2",-2.30258509299405,0.639836755953673
"p_6e29a00f3e8415e3","yes","no",0.05,"2","Stimuli/Stimuli_Bubble/Food/Onion_bubble_2.jpg","Food",0,1.7111,"yes",39,32,"facebook","aphantasia_facebook","Stimuli/Stimuli_Bubble/Food/Onion_bubble_2.jpg","aphant","unmasked","2",-2.99573227355399,-0.490586918822914
"p_6e29a00f3e8415e3","yes","yes",0.025,"2","Stimuli/Stimuli_Bubble/Tools/HackSaw_bubble_2.jpg","Tools",1,1.0476,"yes",39,32,"facebook","aphantasia_facebook","Stimuli/Stimuli_Bubble/Tools/HackSaw_bubble_2.jpg","aphant","masked","2",-3.68887945411394,-1.6210105935995
"p_6e29a00f3e8415e3","yes","no",0.05,"2","Stimuli/Stimuli_Bubble/Toys/Bicycle_bubble_2.jpg","Toys",1,0.8713,"yes",39,32,"facebook","aphantasia_facebook","Stimuli/Stimuli_Bubble/Toys/Bicycle_bubble_2.jpg","aphant","unmasked","2",-2.99573227355399,-0.490586918822914
"p_6e29a00f3e8415e3","yes","yes",0.1,"2","Stimuli/Stimuli_Bubble/Tools/Pincers_bubble_2.jpg","Tools",1,0.7171,"yes",39,32,"facebook","aphantasia_facebook","Stimuli/Stimuli_Bubble/Tools/Pincers_bubble_2.jpg","aphant","masked","2",-2.30258509299405,0.639836755953673
"p_6e29a00f3e8415e3","yes","yes",0.075,"2","Stimuli/Stimuli_Bubble/Toys/Mobile_bubble_2.jpg","Toys",0,1.2009,"yes",39,32,"facebook","aphantasia_facebook","Stimuli/Stimuli_Bubble/Toys/Mobile_bubble_2.jpg","aphant","masked","2",-2.59026716544583,0.170668540848797
"p_6e29a00f3e8415e3","yes","yes",0.025,"2","Stimuli/Stimuli_Bubble/Clothing/Socks_bubble_2.jpg","Clothing",1,2.6299,"yes",39,32,"facebook","aphantasia_facebook","Stimuli/Stimuli_Bubble/Clothing/Socks_bubble_2.jpg","aphant","masked","2",-3.68887945411394,-1.6210105935995
"p_6e29a00f3e8415e3","yes","no",0.1,"2","Stimuli/Stimuli_Bubble/Tools/Level_bubble_2.jpg","Tools",1,0.844,"yes",39,32,"facebook","aphantasia_facebook","Stimuli/Stimuli_Bubble/Tools/Level_bubble_2.jpg","aphant","unmasked","2",-2.30258509299405,0.639836755953673
"p_6e29a00f3e8415e3","yes","no",0.15,"2","Stimuli/Stimuli_Bubble/Clothing/Onesie_bubble_2.jpg","Clothing",1,0.6045,"yes",39,32,"facebook","aphantasia_facebook","Stimuli/Stimuli_Bubble/Clothing/Onesie_bubble_2.jpg","aphant","unmasked","2",-1.89711998488588,1.30109221562538
"p_6e29a00f3e8415e3","yes","yes",0.025,"2","Stimuli/Stimuli_Bubble/Food/Melon_bubble_2.jpg","Food",1,2.0921,"yes",39,32,"facebook","aphantasia_facebook","Stimuli/Stimuli_Bubble/Food/Melon_bubble_2.jpg","aphant","masked","2",-3.68887945411394,-1.6210105935995
"p_6e29a00f3e8415e3","yes","no",0.1,"2","Stimuli/Stimuli_Bubble/Clothing/Swimsuit_bubble_2.jpg","Clothing",1,0.4871,"yes",39,32,"facebook","aphantasia_facebook","Stimuli/Stimuli_Bubble/Clothing/Swimsuit_bubble_2.jpg","aphant","unmasked","2",-2.30258509299405,0.639836755953673
"p_6e29a00f3e8415e3","yes","yes",0.075,"2","Stimuli/Stimuli_Bubble/Tools/LeafBlower_bubble_2.jpg","Tools",1,0.6455,"yes",39,32,"facebook","aphantasia_facebook","Stimuli/Stimuli_Bubble/Tools/LeafBlower_bubble_2.jpg","aphant","masked","2",-2.59026716544583,0.170668540848797
"p_6e29a00f3e8415e3","yes","no",0.15,"2","Stimuli/Stimuli_Bubble/Tools/MeasuringTape_bubble_2.jpg","Tools",0,0.6455,"yes",39,32,"facebook","aphantasia_facebook","Stimuli/Stimuli_Bubble/Tools/MeasuringTape_bubble_2.jpg","aphant","unmasked","2",-1.89711998488588,1.30109221562538
"p_6e29a00f3e8415e3","yes","no",0.1,"2","Stimuli/Stimuli_Bubble/Tools/Plunger_bubble_2.jpg","Tools",1,0.6587,"yes",39,32,"facebook","aphantasia_facebook","Stimuli/Stimuli_Bubble/Tools/Plunger_bubble_2.jpg","aphant","unmasked","2",-2.30258509299405,0.639836755953673
"p_6e29a00f3e8415e3","yes","yes",0.15,"2","Stimuli/Stimuli_Bubble/Food/Chips_bubble_2.jpg","Food",0,0.8612,"yes",39,32,"facebook","aphantasia_facebook","Stimuli/Stimuli_Bubble/Food/Chips_bubble_2.jpg","aphant","masked","2",-1.89711998488588,1.30109221562538
"p_6e29a00f3e8415e3","yes","no",0.025,"2","Stimuli/Stimuli_Bubble/Clothing/SnowBoots_bubble_2.jpg","Clothing",0,0.6089,"yes",39,32,"facebook","aphantasia_facebook","Stimuli/Stimuli_Bubble/Clothing/SnowBoots_bubble_2.jpg","aphant","unmasked","2",-3.68887945411394,-1.6210105935995
"p_6e29a00f3e8415e3","yes","no",0.1,"2","Stimuli/Stimuli_Bubble/Tools/JackHammer_bubble_2.jpg","Tools",0,0.6964,"yes",39,32,"facebook","aphantasia_facebook","Stimuli/Stimuli_Bubble/Tools/JackHammer_bubble_2.jpg","aphant","unmasked","2",-2.30258509299405,0.639836755953673
"p_6e29a00f3e8415e3","yes","yes",0.025,"2","Stimuli/Stimuli_Bubble/Toys/StuffedElephant_bubble_2.jpg","Toys",0,2.6909,"yes",39,32,"facebook","aphantasia_facebook","Stimuli/Stimuli_Bubble/Toys/StuffedElephant_bubble_2.jpg","aphant","masked","2",-3.68887945411394,-1.6210105935995
"p_6e29a00f3e8415e3","yes","yes",0.05,"2","Stimuli/Stimuli_Bubble/Tools/Blowtorch_bubble_2.jpg","Tools",0,0.56,"yes",39,32,"facebook","aphantasia_facebook","Stimuli/Stimuli_Bubble/Tools/Blowtorch_bubble_2.jpg","aphant","masked","2",-2.99573227355399,-0.490586918822914
"p_6e29a00f3e8415e3","yes","yes",0.15,"2","Stimuli/Stimuli_Bubble/Tools/PowerDrill_bubble_2.jpg","Tools",0,1.53,"yes",39,32,"facebook","aphantasia_facebook","Stimuli/Stimuli_Bubble/Tools/PowerDrill_bubble_2.jpg","aphant","masked","2",-1.89711998488588,1.30109221562538
"p_6e29a00f3e8415e3","yes","yes",0.05,"2","Stimuli/Stimuli_Bubble/Clothing/SportsBra_bubble_2.jpg","Clothing",0,0.9046,"yes",39,32,"facebook","aphantasia_facebook","Stimuli/Stimuli_Bubble/Clothing/SportsBra_bubble_2.jpg","aphant","masked","2",-2.99573227355399,-0.490586918822914
"p_6e29a00f3e8415e3","yes","yes",0.025,"2","Stimuli/Stimuli_Bubble/Food/Bread_bubble_2.jpg","Food",0,1.431,"yes",39,32,"facebook","aphantasia_facebook","Stimuli/Stimuli_Bubble/Food/Bread_bubble_2.jpg","aphant","masked","2",-3.68887945411394,-1.6210105935995
"p_6e29a00f3e8415e3","yes","yes",0.15,"2","Stimuli/Stimuli_Bubble/Clothing/Slippers_bubble_2.jpg","Clothing",0,0.846,"yes",39,32,"facebook","aphantasia_facebook","Stimuli/Stimuli_Bubble/Clothing/Slippers_bubble_2.jpg","aphant","masked","2",-1.89711998488588,1.30109221562538
"p_6e29a00f3e8415e3","yes","yes",0.05,"2","Stimuli/Stimuli_Bubble/Toys/Dinosaur_bubble_2.jpg","Toys",1,0.8582,"yes",39,32,"facebook","aphantasia_facebook","Stimuli/Stimuli_Bubble/Toys/Dinosaur_bubble_2.jpg","aphant","masked","2",-2.99573227355399,-0.490586918822914
"p_6e29a00f3e8415e3","yes","yes",0.025,"2","Stimuli/Stimuli_Bubble/Tools/GardenHose_bubble_2.jpg","Tools",1,1.0585,"yes",39,32,"facebook","aphantasia_facebook","Stimuli/Stimuli_Bubble/Tools/GardenHose_bubble_2.jpg","aphant","masked","2",-3.68887945411394,-1.6210105935995
"p_6e29a00f3e8415e3","yes","no",0.15,"2","Stimuli/Stimuli_Bubble/Toys/StackingLoops_bubble_2.jpg","Toys",0,1.3241,"yes",39,32,"facebook","aphantasia_facebook","Stimuli/Stimuli_Bubble/Toys/StackingLoops_bubble_2.jpg","aphant","unmasked","2",-1.89711998488588,1.30109221562538
"p_6e29a00f3e8415e3","yes","no",0.075,"2","Stimuli/Stimuli_Bubble/Food/Apple_bubble_2.jpg","Food",0,0.663,"yes",39,32,"facebook","aphantasia_facebook","Stimuli/Stimuli_Bubble/Food/Apple_bubble_2.jpg","aphant","unmasked","2",-2.59026716544583,0.170668540848797
"p_6e29a00f3e8415e3","yes","yes",0.05,"2","Stimuli/Stimuli_Bubble/Food/Pumpkin_bubble_2.jpg","Food",1,1.1067,"yes",39,32,"facebook","aphantasia_facebook","Stimuli/Stimuli_Bubble/Food/Pumpkin_bubble_2.jpg","aphant","masked","2",-2.99573227355399,-0.490586918822914
"p_6e29a00f3e8415e3","yes","yes",0.05,"2","Stimuli/Stimuli_Bubble/Tools/Snip_bubble_2.jpg","Tools",0,2.2272,"yes",39,32,"facebook","aphantasia_facebook","Stimuli/Stimuli_Bubble/Tools/Snip_bubble_2.jpg","aphant","masked","2",-2.99573227355399,-0.490586918822914
"p_6e29a00f3e8415e3","yes","no",0.15,"2","Stimuli/Stimuli_Bubble/Clothing/Hat_bubble_2.jpg","Clothing",1,0.7178,"yes",39,32,"facebook","aphantasia_facebook","Stimuli/Stimuli_Bubble/Clothing/Hat_bubble_2.jpg","aphant","unmasked","2",-1.89711998488588,1.30109221562538
"p_6e29a00f3e8415e3","yes","yes",0.025,"2","Stimuli/Stimuli_Bubble/Toys/Barbie_bubble_2.jpg","Toys",1,0.543,"yes",39,32,"facebook","aphantasia_facebook","Stimuli/Stimuli_Bubble/Toys/Barbie_bubble_2.jpg","aphant","masked","2",-3.68887945411394,-1.6210105935995
"p_6e29a00f3e8415e3","yes","no",0.05,"2","Stimuli/Stimuli_Bubble/Toys/Tent_bubble_2.jpg","Toys",0,0.5723,"yes",39,32,"facebook","aphantasia_facebook","Stimuli/Stimuli_Bubble/Toys/Tent_bubble_2.jpg","aphant","unmasked","2",-2.99573227355399,-0.490586918822914
"p_6e29a00f3e8415e3","yes","no",0.05,"2","Stimuli/Stimuli_Bubble/Toys/Slinky_bubble_2.jpg","Toys",1,0.618,"yes",39,32,"facebook","aphantasia_facebook","Stimuli/Stimuli_Bubble/Toys/Slinky_bubble_2.jpg","aphant","unmasked","2",-2.99573227355399,-0.490586918822914
"p_6e29a00f3e8415e3","yes","yes",0.15,"2","Stimuli/Stimuli_Bubble/Food/Broccoli_bubble_2.jpg","Food",1,0.5019,"yes",39,32,"facebook","aphantasia_facebook","Stimuli/Stimuli_Bubble/Food/Broccoli_bubble_2.jpg","aphant","masked","2",-1.89711998488588,1.30109221562538
"p_6e29a00f3e8415e3","yes","no",0.1,"2","Stimuli/Stimuli_Bubble/Toys/PelletDrumRattle_bubble_2.jpg","Toys",0,0.8374,"yes",39,32,"facebook","aphantasia_facebook","Stimuli/Stimuli_Bubble/Toys/PelletDrumRattle_bubble_2.jpg","aphant","unmasked","2",-2.30258509299405,0.639836755953673
"p_6e29a00f3e8415e3","yes","yes",0.05,"2","Stimuli/Stimuli_Bubble/Toys/NerfGun_bubble_2.jpg","Toys",0,0.9739,"yes",39,32,"facebook","aphantasia_facebook","Stimuli/Stimuli_Bubble/Toys/NerfGun_bubble_2.jpg","aphant","masked","2",-2.99573227355399,-0.490586918822914
"p_6e29a00f3e8415e3","yes","no",0.025,"2","Stimuli/Stimuli_Bubble/Tools/Screw_bubble_2.jpg","Tools",0,0.9091,"yes",39,32,"facebook","aphantasia_facebook","Stimuli/Stimuli_Bubble/Tools/Screw_bubble_2.jpg","aphant","unmasked","2",-3.68887945411394,-1.6210105935995
"p_6e29a00f3e8415e3","yes","yes",0.075,"2","Stimuli/Stimuli_Bubble/Clothing/LeatherJacket_bubble_2.jpg","Clothing",1,0.7052,"yes",39,32,"facebook","aphantasia_facebook","Stimuli/Stimuli_Bubble/Clothing/LeatherJacket_bubble_2.jpg","aphant","masked","2",-2.59026716544583,0.170668540848797
"p_6e29a00f3e8415e3","yes","no",0.15,"2","Stimuli/Stimuli_Bubble/Food/Kiwi_bubble_2.jpg","Food",1,0.5977,"yes",39,32,"facebook","aphantasia_facebook","Stimuli/Stimuli_Bubble/Food/Kiwi_bubble_2.jpg","aphant","unmasked","2",-1.89711998488588,1.30109221562538
"p_6e29a00f3e8415e3","yes","yes",0.075,"2","Stimuli/Stimuli_Bubble/Food/Pancake_bubble_2.jpg","Food",0,1.4049,"yes",39,32,"facebook","aphantasia_facebook","Stimuli/Stimuli_Bubble/Food/Pancake_bubble_2.jpg","aphant","masked","2",-2.59026716544583,0.170668540848797
"p_6e29a00f3e8415e3","yes","no",0.025,"2","Stimuli/Stimuli_Bubble/Food/Donut_bubble_2.jpg","Food",1,0.6016,"yes",39,32,"facebook","aphantasia_facebook","Stimuli/Stimuli_Bubble/Food/Donut_bubble_2.jpg","aphant","unmasked","2",-3.68887945411394,-1.6210105935995
"p_6e29a00f3e8415e3","yes","no",0.075,"2","Stimuli/Stimuli_Bubble/Toys/RockingHorse_bubble_2.jpg","Toys",0,0.7837,"yes",39,32,"facebook","aphantasia_facebook","Stimuli/Stimuli_Bubble/Toys/RockingHorse_bubble_2.jpg","aphant","unmasked","2",-2.59026716544583,0.170668540848797
"p_6e29a00f3e8415e3","yes","yes",0.075,"2","Stimuli/Stimuli_Bubble/Clothing/Heels_bubble_2.jpg","Clothing",0,1.384,"yes",39,32,"facebook","aphantasia_facebook","Stimuli/Stimuli_Bubble/Clothing/Heels_bubble_2.jpg","aphant","masked","2",-2.59026716544583,0.170668540848797
"p_6e29a00f3e8415e3","yes","no",0.05,"2","Stimuli/Stimuli_Bubble/Clothing/ActivewearShorts_bubble_2.jpg","Clothing",0,2.8469,"yes",39,32,"facebook","aphantasia_facebook","Stimuli/Stimuli_Bubble/Clothing/ActivewearShorts_bubble_2.jpg","aphant","unmasked","2",-2.99573227355399,-0.490586918822914
"p_6e29a00f3e8415e3","yes","yes",0.075,"2","Stimuli/Stimuli_Bubble/Toys/Lego_bubble_2.jpg","Toys",0,0.587,"yes",39,32,"facebook","aphantasia_facebook","Stimuli/Stimuli_Bubble/Toys/Lego_bubble_2.jpg","aphant","masked","2",-2.59026716544583,0.170668540848797
"p_6e29a00f3e8415e3","yes","yes",0.1,"2","Stimuli/Stimuli_Bubble/Toys/Skateboard_bubble_2.jpg","Toys",1,0.836,"yes",39,32,"facebook","aphantasia_facebook","Stimuli/Stimuli_Bubble/Toys/Skateboard_bubble_2.jpg","aphant","masked","2",-2.30258509299405,0.639836755953673
"p_6e29a00f3e8415e3","yes","yes",0.05,"2","Stimuli/Stimuli_Bubble/Clothing/Robe_bubble_2.jpg","Clothing",1,0.62,"yes",39,32,"facebook","aphantasia_facebook","Stimuli/Stimuli_Bubble/Clothing/Robe_bubble_2.jpg","aphant","masked","2",-2.99573227355399,-0.490586918822914
"p_6e29a00f3e8415e3","yes","no",0.15,"2","Stimuli/Stimuli_Bubble/Toys/Pinata_bubble_2.jpg","Toys",0,1.5507,"yes",39,32,"facebook","aphantasia_facebook","Stimuli/Stimuli_Bubble/Toys/Pinata_bubble_2.jpg","aphant","unmasked","2",-1.89711998488588,1.30109221562538
"p_6e29a00f3e8415e3","yes","no",0.05,"2","Stimuli/Stimuli_Bubble/Food/BakedPotato_bubble_2.jpg","Food",1,0.5344,"yes",39,32,"facebook","aphantasia_facebook","Stimuli/Stimuli_Bubble/Food/BakedPotato_bubble_2.jpg","aphant","unmasked","2",-2.99573227355399,-0.490586918822914
"p_6e29a00f3e8415e3","yes","yes",0.05,"2","Stimuli/Stimuli_Bubble/Food/HotDog_bubble_2.jpg","Food",0,0.5265,"yes",39,32,"facebook","aphantasia_facebook","Stimuli/Stimuli_Bubble/Food/HotDog_bubble_2.jpg","aphant","masked","2",-2.99573227355399,-0.490586918822914
"p_6e29a00f3e8415e3","yes","yes",0.1,"2","Stimuli/Stimuli_Bubble/Clothing/Dress_bubble_2.jpg","Clothing",1,0.4772,"yes",39,32,"facebook","aphantasia_facebook","Stimuli/Stimuli_Bubble/Clothing/Dress_bubble_2.jpg","aphant","masked","2",-2.30258509299405,0.639836755953673
"p_6e29a00f3e8415e3","yes","no",0.15,"2","Stimuli/Stimuli_Bubble/Tools/ChainHook_bubble_2.jpg","Tools",1,0.567,"yes",39,32,"facebook","aphantasia_facebook","Stimuli/Stimuli_Bubble/Tools/ChainHook_bubble_2.jpg","aphant","unmasked","2",-1.89711998488588,1.30109221562538
"p_6e29a00f3e8415e3","yes","yes",0.1,"2","Stimuli/Stimuli_Bubble/Tools/PaintRoller_bubble_2.jpg","Tools",1,0.5888,"yes",39,32,"facebook","aphantasia_facebook","Stimuli/Stimuli_Bubble/Tools/PaintRoller_bubble_2.jpg","aphant","masked","2",-2.30258509299405,0.639836755953673
"p_6e29a00f3e8415e3","yes","yes",0.025,"2","Stimuli/Stimuli_Bubble/Food/Eggplant_bubble_2.jpg","Food",1,0.5901,"yes",39,32,"facebook","aphantasia_facebook","Stimuli/Stimuli_Bubble/Food/Eggplant_bubble_2.jpg","aphant","masked","2",-3.68887945411394,-1.6210105935995
"p_6e29a00f3e8415e3","yes","yes",0.15,"2","Stimuli/Stimuli_Bubble/Food/Avocado_bubble_2.jpg","Food",1,0.7006,"yes",39,32,"facebook","aphantasia_facebook","Stimuli/Stimuli_Bubble/Food/Avocado_bubble_2.jpg","aphant","masked","2",-1.89711998488588,1.30109221562538
"p_6e29a00f3e8415e3","yes","yes",0.1,"2","Stimuli/Stimuli_Bubble/Clothing/HaremPants_bubble_2.jpg","Clothing",1,0.5425,"yes",39,32,"facebook","aphantasia_facebook","Stimuli/Stimuli_Bubble/Clothing/HaremPants_bubble_2.jpg","aphant","masked","2",-2.30258509299405,0.639836755953673
"p_6e29a00f3e8415e3","yes","yes",0.075,"2","Stimuli/Stimuli_Bubble/Tools/HandRake_bubble_2.jpg","Tools",0,0.5839,"yes",39,32,"facebook","aphantasia_facebook","Stimuli/Stimuli_Bubble/Tools/HandRake_bubble_2.jpg","aphant","masked","2",-2.59026716544583,0.170668540848797
"p_6e29a00f3e8415e3","yes","yes",0.025,"2","Stimuli/Stimuli_Bubble/Clothing/Boxers_bubble_2.jpg","Clothing",0,0.4376,"yes",39,32,"facebook","aphantasia_facebook","Stimuli/Stimuli_Bubble/Clothing/Boxers_bubble_2.jpg","aphant","masked","2",-3.68887945411394,-1.6210105935995
"p_6e29a00f3e8415e3","yes","yes",0.1,"2","Stimuli/Stimuli_Bubble/Food/Croissant_bubble_2.jpg","Food",0,0.5181,"yes",39,32,"facebook","aphantasia_facebook","Stimuli/Stimuli_Bubble/Food/Croissant_bubble_2.jpg","aphant","masked","2",-2.30258509299405,0.639836755953673
"p_6e29a00f3e8415e3","yes","no",0.15,"2","Stimuli/Stimuli_Bubble/Tools/BoltCutter_bubble_2.jpg","Tools",1,0.5882,"yes",39,32,"facebook","aphantasia_facebook","Stimuli/Stimuli_Bubble/Tools/BoltCutter_bubble_2.jpg","aphant","unmasked","2",-1.89711998488588,1.30109221562538
"p_6e29a00f3e8415e3","yes","yes",0.075,"2","Stimuli/Stimuli_Bubble/Food/Cheese_bubble_2.jpg","Food",0,0.4168,"yes",39,32,"facebook","aphantasia_facebook","Stimuli/Stimuli_Bubble/Food/Cheese_bubble_2.jpg","aphant","masked","2",-2.59026716544583,0.170668540848797
"p_6e29a00f3e8415e3","yes","no",0.025,"2","Stimuli/Stimuli_Bubble/Food/Omelette_bubble_2.jpg","Food",0,0.3903,"yes",39,32,"facebook","aphantasia_facebook","Stimuli/Stimuli_Bubble/Food/Omelette_bubble_2.jpg","aphant","unmasked","2",-3.68887945411394,-1.6210105935995
"p_6e29a00f3e8415e3","yes","no",0.1,"2","Stimuli/Stimuli_Bubble/Food/Banana_bubble_2.jpg","Food",1,0.6671,"yes",39,32,"facebook","aphantasia_facebook","Stimuli/Stimuli_Bubble/Food/Banana_bubble_2.jpg","aphant","unmasked","2",-2.30258509299405,0.639836755953673
"p_6e29a00f3e8415e3","yes","no",0.05,"2","Stimuli/Stimuli_Bubble/Clothing/Saree_bubble_2.jpg","Clothing",1,0.9306,"yes",39,32,"facebook","aphantasia_facebook","Stimuli/Stimuli_Bubble/Clothing/Saree_bubble_2.jpg","aphant","unmasked","2",-2.99573227355399,-0.490586918822914
"p_6e29a00f3e8415e3","yes","yes",0.05,"2","Stimuli/Stimuli_Bubble/Toys/DollHouse_bubble_2.jpg","Toys",0,0.4446,"yes",39,32,"facebook","aphantasia_facebook","Stimuli/Stimuli_Bubble/Toys/DollHouse_bubble_2.jpg","aphant","masked","2",-2.99573227355399,-0.490586918822914
"p_6e29a00f3e8415e3","yes","yes",0.075,"2","Stimuli/Stimuli_Bubble/Food/Potato_bubble_2.jpg","Food",0,0.6419,"yes",39,32,"facebook","aphantasia_facebook","Stimuli/Stimuli_Bubble/Food/Potato_bubble_2.jpg","aphant","masked","2",-2.59026716544583,0.170668540848797
"p_6e29a00f3e8415e3","yes","no",0.075,"2","Stimuli/Stimuli_Bubble/Tools/PaintTray_bubble_2.jpg","Tools",0,0.6632,"yes",39,32,"facebook","aphantasia_facebook","Stimuli/Stimuli_Bubble/Tools/PaintTray_bubble_2.jpg","aphant","unmasked","2",-2.59026716544583,0.170668540848797
"p_6e29a00f3e8415e3","yes","yes",0.15,"2","Stimuli/Stimuli_Bubble/Tools/Hammer_bubble_2.jpg","Tools",1,0.7126,"yes",39,32,"facebook","aphantasia_facebook","Stimuli/Stimuli_Bubble/Tools/Hammer_bubble_2.jpg","aphant","masked","2",-1.89711998488588,1.30109221562538
"p_6e29a00f3e8415e3","yes","yes",0.05,"2","Stimuli/Stimuli_Bubble/Tools/Saw_bubble_2.jpg","Tools",1,0.5847,"yes",39,32,"facebook","aphantasia_facebook","Stimuli/Stimuli_Bubble/Tools/Saw_bubble_2.jpg","aphant","masked","2",-2.99573227355399,-0.490586918822914
"p_6e29a00f3e8415e3","yes","no",0.075,"2","Stimuli/Stimuli_Bubble/Clothing/Shirt_bubble_2.jpg","Clothing",1,0.6839,"yes",39,32,"facebook","aphantasia_facebook","Stimuli/Stimuli_Bubble/Clothing/Shirt_bubble_2.jpg","aphant","unmasked","2",-2.59026716544583,0.170668540848797
"p_6e29a00f3e8415e3","yes","yes",0.1,"2","Stimuli/Stimuli_Bubble/Tools/File_bubble_2.jpg","Tools",0,0.431,"yes",39,32,"facebook","aphantasia_facebook","Stimuli/Stimuli_Bubble/Tools/File_bubble_2.jpg","aphant","masked","2",-2.30258509299405,0.639836755953673
"p_6e29a00f3e8415e3","yes","yes",0.15,"2","Stimuli/Stimuli_Bubble/Toys/StuffedHippo_bubble_2.jpg","Toys",0,0.6675,"yes",39,32,"facebook","aphantasia_facebook","Stimuli/Stimuli_Bubble/Toys/StuffedHippo_bubble_2.jpg","aphant","masked","2",-1.89711998488588,1.30109221562538
"p_6e29a00f3e8415e3","yes","no",0.075,"2","Stimuli/Stimuli_Bubble/Tools/ServiceCart_bubble_2.jpg","Tools",0,1.8795,"yes",39,32,"facebook","aphantasia_facebook","Stimuli/Stimuli_Bubble/Tools/ServiceCart_bubble_2.jpg","aphant","unmasked","2",-2.59026716544583,0.170668540848797
"p_6e29a00f3e8415e3","yes","no",0.15,"2","Stimuli/Stimuli_Bubble/Clothing/Shorts_bubble_2.jpg","Clothing",1,0.0933,"yes",39,32,"facebook","aphantasia_facebook","Stimuli/Stimuli_Bubble/Clothing/Shorts_bubble_2.jpg","aphant","unmasked","2",-1.89711998488588,1.30109221562538
"p_6e29a00f3e8415e3","yes","no",0.025,"2","Stimuli/Stimuli_Bubble/Toys/BathToys_bubble_2.jpg","Toys",1,2.9255,"yes",39,32,"facebook","aphantasia_facebook","Stimuli/Stimuli_Bubble/Toys/BathToys_bubble_2.jpg","aphant","unmasked","2",-3.68887945411394,-1.6210105935995
"p_6e29a00f3e8415e3","yes","no",0.15,"2","Stimuli/Stimuli_Bubble/Food/Cupcake_bubble_2.jpg","Food",1,0.7074,"yes",39,32,"facebook","aphantasia_facebook","Stimuli/Stimuli_Bubble/Food/Cupcake_bubble_2.jpg","aphant","unmasked","2",-1.89711998488588,1.30109221562538
"p_6e29a00f3e8415e3","yes","no",0.15,"2","Stimuli/Stimuli_Bubble/Toys/StuffedDog_bubble_2.jpg","Toys",1,0.6792,"yes",39,32,"facebook","aphantasia_facebook","Stimuli/Stimuli_Bubble/Toys/StuffedDog_bubble_2.jpg","aphant","unmasked","2",-1.89711998488588,1.30109221562538
"p_6e29a00f3e8415e3","yes","no",0.15,"1","Stimuli/Stimuli_Bubble/Tools/PowerDrill_bubble_1.jpg","Tools",0,1.8505,"yes",39,32,"facebook","aphantasia_facebook","Stimuli/Stimuli_Bubble/Tools/PowerDrill_bubble_1.jpg","aphant","unmasked","1",-1.89711998488588,1.30109221562538
"p_6e29a00f3e8415e3","yes","yes",0.15,"1","Stimuli/Stimuli_Bubble/Food/Donut_bubble_1.jpg","Food",1,1.4571,"yes",39,32,"facebook","aphantasia_facebook","Stimuli/Stimuli_Bubble/Food/Donut_bubble_1.jpg","aphant","masked","1",-1.89711998488588,1.30109221562538
"p_6e29a00f3e8415e3","yes","yes",0.05,"1","Stimuli/Stimuli_Bubble/Food/Cabbage_bubble_1.jpg","Food",0,0.6346,"yes",39,32,"facebook","aphantasia_facebook","Stimuli/Stimuli_Bubble/Food/Cabbage_bubble_1.jpg","aphant","masked","1",-2.99573227355399,-0.490586918822914
"p_6e29a00f3e8415e3","yes","yes",0.1,"1","Stimuli/Stimuli_Bubble/Toys/Ball_bubble_1.jpg","Toys",0,0.4238,"yes",39,32,"facebook","aphantasia_facebook","Stimuli/Stimuli_Bubble/Toys/Ball_bubble_1.jpg","aphant","masked","1",-2.30258509299405,0.639836755953673
"p_6e29a00f3e8415e3","yes","yes",0.075,"1","Stimuli/Stimuli_Bubble/Tools/PaperCutter_bubble_1.jpg","Tools",1,0.4287,"yes",39,32,"facebook","aphantasia_facebook","Stimuli/Stimuli_Bubble/Tools/PaperCutter_bubble_1.jpg","aphant","masked","1",-2.59026716544583,0.170668540848797
"p_6e29a00f3e8415e3","yes","yes",0.15,"1","Stimuli/Stimuli_Bubble/Food/Pancake_bubble_1.jpg","Food",0,0.5392,"yes",39,32,"facebook","aphantasia_facebook","Stimuli/Stimuli_Bubble/Food/Pancake_bubble_1.jpg","aphant","masked","1",-1.89711998488588,1.30109221562538
"p_6e29a00f3e8415e3","yes","yes",0.05,"1","Stimuli/Stimuli_Bubble/Tools/HandRake_bubble_1.jpg","Tools",0,2.5416,"yes",39,32,"facebook","aphantasia_facebook","Stimuli/Stimuli_Bubble/Tools/HandRake_bubble_1.jpg","aphant","masked","1",-2.99573227355399,-0.490586918822914
"p_6e29a00f3e8415e3","yes","yes",0.05,"1","Stimuli/Stimuli_Bubble/Clothing/SnowCoat_bubble_1.jpg","Clothing",1,0.8552,"yes",39,32,"facebook","aphantasia_facebook","Stimuli/Stimuli_Bubble/Clothing/SnowCoat_bubble_1.jpg","aphant","masked","1",-2.99573227355399,-0.490586918822914
"p_6e29a00f3e8415e3","yes","no",0.075,"1","Stimuli/Stimuli_Bubble/Toys/StuffedElephant_bubble_1.jpg","Toys",0,0.6685,"yes",39,32,"facebook","aphantasia_facebook","Stimuli/Stimuli_Bubble/Toys/StuffedElephant_bubble_1.jpg","aphant","unmasked","1",-2.59026716544583,0.170668540848797
"p_6e29a00f3e8415e3","yes","yes",0.025,"1","Stimuli/Stimuli_Bubble/Toys/StuffedRabbit_bubble_1.jpg","Toys",1,1.268,"yes",39,32,"facebook","aphantasia_facebook","Stimuli/Stimuli_Bubble/Toys/StuffedRabbit_bubble_1.jpg","aphant","masked","1",-3.68887945411394,-1.6210105935995
"p_6e29a00f3e8415e3","yes","yes",0.025,"1","Stimuli/Stimuli_Bubble/Clothing/Raincoat_bubble_1.jpg","Clothing",0,0.4516,"yes",39,32,"facebook","aphantasia_facebook","Stimuli/Stimuli_Bubble/Clothing/Raincoat_bubble_1.jpg","aphant","masked","1",-3.68887945411394,-1.6210105935995
